"X","id","itemTime","trial","RT","number_chosen","number_not_chosen","quantifier","clicked_left","language","comments","engagement","difficulty","time","id_int","time_minutes","quantifier_num","chose_higher","higher","lower"
11,"A03846191RWU57N8DCK72:3X87C8JFV7JUSCXH00P6SHUCLALQSJ",1484510873177,11,152,209,209,"Most",1,"english",NA,3,0,162666,46,2.7111,7,0,209,209
12,"A03846191RWU57N8DCK72:3X87C8JFV7JUSCXH00P6SHUCLALQSJ",1484510873355,12,177,209,217,"Most",1,"english",NA,3,0,162666,46,2.7111,7,0,217,209
13,"A03846191RWU57N8DCK72:3X87C8JFV7JUSCXH00P6SHUCLALQSJ",1484510873534,13,177,88,209,"Most",1,"english",NA,3,0,162666,46,2.7111,7,0,209,88
14,"A03846191RWU57N8DCK72:3X87C8JFV7JUSCXH00P6SHUCLALQSJ",1484510873865,14,330,88,80,"Most",1,"english",NA,3,0,162666,46,2.7111,7,1,88,80
15,"A03846191RWU57N8DCK72:3X87C8JFV7JUSCXH00P6SHUCLALQSJ",1484510873888,15,21,88,109,"Most",1,"english",NA,3,0,162666,46,2.7111,7,0,109,88
16,"A03846191RWU57N8DCK72:3X87C8JFV7JUSCXH00P6SHUCLALQSJ",1484510874050,16,159,104,88,"Most",1,"english",NA,3,0,162666,46,2.7111,7,1,104,88
17,"A03846191RWU57N8DCK72:3X87C8JFV7JUSCXH00P6SHUCLALQSJ",1484510874243,17,190,85,104,"Most",1,"english",NA,3,0,162666,46,2.7111,7,0,104,85
18,"A03846191RWU57N8DCK72:3X87C8JFV7JUSCXH00P6SHUCLALQSJ",1484510874494,18,250,85,192,"Most",1,"english",NA,3,0,162666,46,2.7111,7,0,192,85
19,"A03846191RWU57N8DCK72:3X87C8JFV7JUSCXH00P6SHUCLALQSJ",1484510874586,19,90,85,107,"Most",1,"english",NA,3,0,162666,46,2.7111,7,0,107,85
20,"A03846191RWU57N8DCK72:3X87C8JFV7JUSCXH00P6SHUCLALQSJ",1484510874759,20,173,85,59,"Most",1,"english",NA,3,0,162666,46,2.7111,7,1,85,59
21,"A03846191RWU57N8DCK72:3X87C8JFV7JUSCXH00P6SHUCLALQSJ",1484510874968,21,208,85,60,"Most",1,"english",NA,3,0,162666,46,2.7111,7,1,85,60
22,"A03846191RWU57N8DCK72:3X87C8JFV7JUSCXH00P6SHUCLALQSJ",1484510875161,22,191,59,85,"Most",1,"english",NA,3,0,162666,46,2.7111,7,0,85,59
23,"A03846191RWU57N8DCK72:3X87C8JFV7JUSCXH00P6SHUCLALQSJ",1484510875361,23,199,59,132,"Most",1,"english",NA,3,0,162666,46,2.7111,7,0,132,59
24,"A03846191RWU57N8DCK72:3X87C8JFV7JUSCXH00P6SHUCLALQSJ",1484510875963,24,601,31,59,"Most",1,"english",NA,3,0,162666,46,2.7111,7,0,59,31
25,"A03846191RWU57N8DCK72:3X87C8JFV7JUSCXH00P6SHUCLALQSJ",1484510876474,25,509,31,258,"Most",1,"english",NA,3,0,162666,46,2.7111,7,0,258,31
26,"A03846191RWU57N8DCK72:3X87C8JFV7JUSCXH00P6SHUCLALQSJ",1484510876722,26,246,14,31,"Most",1,"english",NA,3,0,162666,46,2.7111,7,0,31,14
27,"A03846191RWU57N8DCK72:3X87C8JFV7JUSCXH00P6SHUCLALQSJ",1484510879019,27,2296,14,267,"Most",1,"english",NA,3,0,162666,46,2.7111,7,0,267,14
28,"A03846191RWU57N8DCK72:3X87C8JFV7JUSCXH00P6SHUCLALQSJ",1484510879181,28,161,14,38,"Most",1,"english",NA,3,0,162666,46,2.7111,7,0,38,14
29,"A03846191RWU57N8DCK72:3X87C8JFV7JUSCXH00P6SHUCLALQSJ",1484510879343,29,160,14,3,"Most",1,"english",NA,3,0,162666,46,2.7111,7,1,14,3
30,"A03846191RWU57N8DCK72:3X87C8JFV7JUSCXH00P6SHUCLALQSJ",1484510879494,30,149,360,14,"Most",1,"english",NA,3,0,162666,46,2.7111,7,1,360,14
31,"A03846191RWU57N8DCK72:3X87C8JFV7JUSCXH00P6SHUCLALQSJ",1484510879758,31,263,356,360,"Most",1,"english",NA,3,0,162666,46,2.7111,7,0,360,356
32,"A03846191RWU57N8DCK72:3X87C8JFV7JUSCXH00P6SHUCLALQSJ",1484510879803,32,44,356,368,"Most",1,"english",NA,3,0,162666,46,2.7111,7,0,368,356
33,"A03846191RWU57N8DCK72:3X87C8JFV7JUSCXH00P6SHUCLALQSJ",1484510879885,33,81,356,101,"Most",1,"english",NA,3,0,162666,46,2.7111,7,1,356,101
34,"A03846191RWU57N8DCK72:3X87C8JFV7JUSCXH00P6SHUCLALQSJ",1484510880040,34,152,332,356,"Most",1,"english",NA,3,0,162666,46,2.7111,7,0,356,332
35,"A03846191RWU57N8DCK72:3X87C8JFV7JUSCXH00P6SHUCLALQSJ",1484510880169,35,128,332,345,"Most",1,"english",NA,3,0,162666,46,2.7111,7,0,345,332
36,"A03846191RWU57N8DCK72:3X87C8JFV7JUSCXH00P6SHUCLALQSJ",1484510880293,36,123,332,360,"Most",1,"english",NA,3,0,162666,46,2.7111,7,0,360,332
37,"A03846191RWU57N8DCK72:3X87C8JFV7JUSCXH00P6SHUCLALQSJ",1484510880463,37,169,338,332,"Most",1,"english",NA,3,0,162666,46,2.7111,7,1,338,332
38,"A03846191RWU57N8DCK72:3X87C8JFV7JUSCXH00P6SHUCLALQSJ",1484510880633,38,169,338,80,"Most",1,"english",NA,3,0,162666,46,2.7111,7,1,338,80
39,"A03846191RWU57N8DCK72:3X87C8JFV7JUSCXH00P6SHUCLALQSJ",1484510880943,39,309,338,332,"Most",1,"english",NA,3,0,162666,46,2.7111,7,1,338,332
40,"A03846191RWU57N8DCK72:3X87C8JFV7JUSCXH00P6SHUCLALQSJ",1484510881003,40,59,338,318,"Most",1,"english",NA,3,0,162666,46,2.7111,7,1,338,318
41,"A03846191RWU57N8DCK72:3X87C8JFV7JUSCXH00P6SHUCLALQSJ",1484510881197,41,193,338,323,"Most",1,"english",NA,3,0,162666,46,2.7111,7,1,338,323
42,"A03846191RWU57N8DCK72:3X87C8JFV7JUSCXH00P6SHUCLALQSJ",1484510881359,42,161,317,338,"Most",1,"english",NA,3,0,162666,46,2.7111,7,0,338,317
43,"A03846191RWU57N8DCK72:3X87C8JFV7JUSCXH00P6SHUCLALQSJ",1484510881543,43,183,317,252,"Most",1,"english",NA,3,0,162666,46,2.7111,7,1,317,252
44,"A03846191RWU57N8DCK72:3X87C8JFV7JUSCXH00P6SHUCLALQSJ",1484510881713,44,169,335,317,"Most",1,"english",NA,3,0,162666,46,2.7111,7,1,335,317
45,"A03846191RWU57N8DCK72:3X87C8JFV7JUSCXH00P6SHUCLALQSJ",1484510881883,45,169,393,335,"Most",1,"english",NA,3,0,162666,46,2.7111,7,1,393,335
46,"A03846191RWU57N8DCK72:3X87C8JFV7JUSCXH00P6SHUCLALQSJ",1484510891911,46,10027,373,393,"Most",1,"english",NA,3,0,162666,46,2.7111,7,0,393,373
47,"A03846191RWU57N8DCK72:3X87C8JFV7JUSCXH00P6SHUCLALQSJ",1484510892065,47,153,373,395,"Most",1,"english",NA,3,0,162666,46,2.7111,7,0,395,373
48,"A03846191RWU57N8DCK72:3X87C8JFV7JUSCXH00P6SHUCLALQSJ",1484510892605,48,539,378,373,"Most",0,"english",NA,3,0,162666,46,2.7111,7,1,378,373
49,"A03846191RWU57N8DCK72:3X87C8JFV7JUSCXH00P6SHUCLALQSJ",1484510893253,49,647,38,378,"Most",1,"english",NA,3,0,162666,46,2.7111,7,0,378,38
50,"A03846191RWU57N8DCK72:3X87C8JFV7JUSCXH00P6SHUCLALQSJ",1484510893555,50,301,45,38,"Most",1,"english",NA,3,0,162666,46,2.7111,7,1,45,38
61,"A03846191RWU57N8DCK72:3X87C8JFV7JUSCXH00P6SHUCLALQSJ",1484510899791,11,115,240,148,"Few",1,"english",NA,3,0,162666,46,2.7111,3,1,240,148
62,"A03846191RWU57N8DCK72:3X87C8JFV7JUSCXH00P6SHUCLALQSJ",1484510899929,12,137,240,214,"Few",1,"english",NA,3,0,162666,46,2.7111,3,1,240,214
63,"A03846191RWU57N8DCK72:3X87C8JFV7JUSCXH00P6SHUCLALQSJ",1484510900083,13,153,240,239,"Few",1,"english",NA,3,0,162666,46,2.7111,3,1,240,239
64,"A03846191RWU57N8DCK72:3X87C8JFV7JUSCXH00P6SHUCLALQSJ",1484510900215,14,131,337,240,"Few",1,"english",NA,3,0,162666,46,2.7111,3,1,337,240
65,"A03846191RWU57N8DCK72:3X87C8JFV7JUSCXH00P6SHUCLALQSJ",1484510900361,15,145,53,337,"Few",1,"english",NA,3,0,162666,46,2.7111,3,0,337,53
66,"A03846191RWU57N8DCK72:3X87C8JFV7JUSCXH00P6SHUCLALQSJ",1484510900532,16,170,67,53,"Few",1,"english",NA,3,0,162666,46,2.7111,3,1,67,53
67,"A03846191RWU57N8DCK72:3X87C8JFV7JUSCXH00P6SHUCLALQSJ",1484510900753,17,217,67,48,"Few",1,"english",NA,3,0,162666,46,2.7111,3,1,67,48
68,"A03846191RWU57N8DCK72:3X87C8JFV7JUSCXH00P6SHUCLALQSJ",1484510900787,18,32,396,67,"Few",1,"english",NA,3,0,162666,46,2.7111,3,1,396,67
69,"A03846191RWU57N8DCK72:3X87C8JFV7JUSCXH00P6SHUCLALQSJ",1484510900949,19,161,407,396,"Few",1,"english",NA,3,0,162666,46,2.7111,3,1,407,396
70,"A03846191RWU57N8DCK72:3X87C8JFV7JUSCXH00P6SHUCLALQSJ",1484510901133,20,183,407,189,"Few",1,"english",NA,3,0,162666,46,2.7111,3,1,407,189
71,"A03846191RWU57N8DCK72:3X87C8JFV7JUSCXH00P6SHUCLALQSJ",1484510901281,21,146,409,407,"Few",1,"english",NA,3,0,162666,46,2.7111,3,1,409,407
72,"A03846191RWU57N8DCK72:3X87C8JFV7JUSCXH00P6SHUCLALQSJ",1484510901460,22,178,409,405,"Few",1,"english",NA,3,0,162666,46,2.7111,3,1,409,405
73,"A03846191RWU57N8DCK72:3X87C8JFV7JUSCXH00P6SHUCLALQSJ",1484510901569,23,108,409,406,"Few",1,"english",NA,3,0,162666,46,2.7111,3,1,409,406
74,"A03846191RWU57N8DCK72:3X87C8JFV7JUSCXH00P6SHUCLALQSJ",1484510901722,24,152,0,409,"Few",1,"english",NA,3,0,162666,46,2.7111,3,0,409,0
75,"A03846191RWU57N8DCK72:3X87C8JFV7JUSCXH00P6SHUCLALQSJ",1484510902315,25,591,15,0,"Few",0,"english",NA,3,0,162666,46,2.7111,3,1,15,0
76,"A03846191RWU57N8DCK72:3X87C8JFV7JUSCXH00P6SHUCLALQSJ",1484510902491,26,175,15,59,"Few",0,"english",NA,3,0,162666,46,2.7111,3,0,59,15
77,"A03846191RWU57N8DCK72:3X87C8JFV7JUSCXH00P6SHUCLALQSJ",1484510902661,27,169,40,15,"Few",0,"english",NA,3,0,162666,46,2.7111,3,1,40,15
78,"A03846191RWU57N8DCK72:3X87C8JFV7JUSCXH00P6SHUCLALQSJ",1484510902809,28,147,59,40,"Few",0,"english",NA,3,0,162666,46,2.7111,3,1,59,40
79,"A03846191RWU57N8DCK72:3X87C8JFV7JUSCXH00P6SHUCLALQSJ",1484510902993,29,183,59,31,"Few",0,"english",NA,3,0,162666,46,2.7111,3,1,59,31
80,"A03846191RWU57N8DCK72:3X87C8JFV7JUSCXH00P6SHUCLALQSJ",1484510903157,30,163,319,59,"Few",0,"english",NA,3,0,162666,46,2.7111,3,1,319,59
81,"A03846191RWU57N8DCK72:3X87C8JFV7JUSCXH00P6SHUCLALQSJ",1484510903349,31,191,312,319,"Few",0,"english",NA,3,0,162666,46,2.7111,3,0,319,312
82,"A03846191RWU57N8DCK72:3X87C8JFV7JUSCXH00P6SHUCLALQSJ",1484510903495,32,145,312,307,"Few",0,"english",NA,3,0,162666,46,2.7111,3,1,312,307
83,"A03846191RWU57N8DCK72:3X87C8JFV7JUSCXH00P6SHUCLALQSJ",1484510903774,33,277,96,312,"Few",0,"english",NA,3,0,162666,46,2.7111,3,0,312,96
84,"A03846191RWU57N8DCK72:3X87C8JFV7JUSCXH00P6SHUCLALQSJ",1484510903851,34,76,81,96,"Few",0,"english",NA,3,0,162666,46,2.7111,3,0,96,81
85,"A03846191RWU57N8DCK72:3X87C8JFV7JUSCXH00P6SHUCLALQSJ",1484510904027,35,175,81,244,"Few",0,"english",NA,3,0,162666,46,2.7111,3,0,244,81
86,"A03846191RWU57N8DCK72:3X87C8JFV7JUSCXH00P6SHUCLALQSJ",1484510904197,36,169,206,81,"Few",0,"english",NA,3,0,162666,46,2.7111,3,1,206,81
87,"A03846191RWU57N8DCK72:3X87C8JFV7JUSCXH00P6SHUCLALQSJ",1484510904441,37,243,206,214,"Few",0,"english",NA,3,0,162666,46,2.7111,3,0,214,206
88,"A03846191RWU57N8DCK72:3X87C8JFV7JUSCXH00P6SHUCLALQSJ",1484510904567,38,125,206,183,"Few",0,"english",NA,3,0,162666,46,2.7111,3,1,206,183
89,"A03846191RWU57N8DCK72:3X87C8JFV7JUSCXH00P6SHUCLALQSJ",1484510904731,39,163,172,206,"Few",0,"english",NA,3,0,162666,46,2.7111,3,0,206,172
90,"A03846191RWU57N8DCK72:3X87C8JFV7JUSCXH00P6SHUCLALQSJ",1484510904918,40,186,196,172,"Few",0,"english",NA,3,0,162666,46,2.7111,3,1,196,172
91,"A03846191RWU57N8DCK72:3X87C8JFV7JUSCXH00P6SHUCLALQSJ",1484510905093,41,174,223,196,"Few",0,"english",NA,3,0,162666,46,2.7111,3,1,223,196
92,"A03846191RWU57N8DCK72:3X87C8JFV7JUSCXH00P6SHUCLALQSJ",1484510905279,42,185,223,245,"Few",0,"english",NA,3,0,162666,46,2.7111,3,0,245,223
93,"A03846191RWU57N8DCK72:3X87C8JFV7JUSCXH00P6SHUCLALQSJ",1484510905447,43,167,195,223,"Few",0,"english",NA,3,0,162666,46,2.7111,3,0,223,195
94,"A03846191RWU57N8DCK72:3X87C8JFV7JUSCXH00P6SHUCLALQSJ",1484510905657,44,208,223,195,"Few",0,"english",NA,3,0,162666,46,2.7111,3,1,223,195
95,"A03846191RWU57N8DCK72:3X87C8JFV7JUSCXH00P6SHUCLALQSJ",1484510905834,45,176,223,368,"Few",0,"english",NA,3,0,162666,46,2.7111,3,0,368,223
96,"A03846191RWU57N8DCK72:3X87C8JFV7JUSCXH00P6SHUCLALQSJ",1484510906035,46,200,223,217,"Few",0,"english",NA,3,0,162666,46,2.7111,3,1,223,217
97,"A03846191RWU57N8DCK72:3X87C8JFV7JUSCXH00P6SHUCLALQSJ",1484510906197,47,161,208,223,"Few",0,"english",NA,3,0,162666,46,2.7111,3,0,223,208
98,"A03846191RWU57N8DCK72:3X87C8JFV7JUSCXH00P6SHUCLALQSJ",1484510906343,48,144,230,208,"Few",0,"english",NA,3,0,162666,46,2.7111,3,1,230,208
99,"A03846191RWU57N8DCK72:3X87C8JFV7JUSCXH00P6SHUCLALQSJ",1484510906515,49,171,230,226,"Few",0,"english",NA,3,0,162666,46,2.7111,3,1,230,226
100,"A03846191RWU57N8DCK72:3X87C8JFV7JUSCXH00P6SHUCLALQSJ",1484510906744,50,227,230,228,"Few",0,"english",NA,3,0,162666,46,2.7111,3,1,230,228
111,"A03846191RWU57N8DCK72:3X87C8JFV7JUSCXH00P6SHUCLALQSJ",1484510910365,11,231,117,110,"Some",1,"english",NA,3,0,162666,46,2.7111,8,1,117,110
112,"A03846191RWU57N8DCK72:3X87C8JFV7JUSCXH00P6SHUCLALQSJ",1484510910565,12,199,91,117,"Some",1,"english",NA,3,0,162666,46,2.7111,8,0,117,91
113,"A03846191RWU57N8DCK72:3X87C8JFV7JUSCXH00P6SHUCLALQSJ",1484510910813,13,247,91,109,"Some",1,"english",NA,3,0,162666,46,2.7111,8,0,109,91
114,"A03846191RWU57N8DCK72:3X87C8JFV7JUSCXH00P6SHUCLALQSJ",1484510911051,14,237,107,91,"Some",1,"english",NA,3,0,162666,46,2.7111,8,1,107,91
115,"A03846191RWU57N8DCK72:3X87C8JFV7JUSCXH00P6SHUCLALQSJ",1484510911275,15,223,209,107,"Some",1,"english",NA,3,0,162666,46,2.7111,8,1,209,107
116,"A03846191RWU57N8DCK72:3X87C8JFV7JUSCXH00P6SHUCLALQSJ",1484510911523,16,247,209,211,"Some",1,"english",NA,3,0,162666,46,2.7111,8,0,211,209
117,"A03846191RWU57N8DCK72:3X87C8JFV7JUSCXH00P6SHUCLALQSJ",1484510911755,17,231,209,234,"Some",1,"english",NA,3,0,162666,46,2.7111,8,0,234,209
118,"A03846191RWU57N8DCK72:3X87C8JFV7JUSCXH00P6SHUCLALQSJ",1484510911931,18,175,209,204,"Some",1,"english",NA,3,0,162666,46,2.7111,8,1,209,204
119,"A03846191RWU57N8DCK72:3X87C8JFV7JUSCXH00P6SHUCLALQSJ",1484510912139,19,207,214,209,"Some",1,"english",NA,3,0,162666,46,2.7111,8,1,214,209
120,"A03846191RWU57N8DCK72:3X87C8JFV7JUSCXH00P6SHUCLALQSJ",1484510912333,20,193,213,214,"Some",1,"english",NA,3,0,162666,46,2.7111,8,0,214,213
121,"A03846191RWU57N8DCK72:3X87C8JFV7JUSCXH00P6SHUCLALQSJ",1484510912503,21,169,157,213,"Some",1,"english",NA,3,0,162666,46,2.7111,8,0,213,157
122,"A03846191RWU57N8DCK72:3X87C8JFV7JUSCXH00P6SHUCLALQSJ",1484510912695,22,191,160,157,"Some",1,"english",NA,3,0,162666,46,2.7111,8,1,160,157
123,"A03846191RWU57N8DCK72:3X87C8JFV7JUSCXH00P6SHUCLALQSJ",1484510912935,23,239,150,160,"Some",1,"english",NA,3,0,162666,46,2.7111,8,0,160,150
124,"A03846191RWU57N8DCK72:3X87C8JFV7JUSCXH00P6SHUCLALQSJ",1484510953262,24,40326,150,180,"Some",1,"english",NA,3,0,162666,46,2.7111,8,0,180,150
125,"A03846191RWU57N8DCK72:3X87C8JFV7JUSCXH00P6SHUCLALQSJ",1484510953934,25,670,149,150,"Some",1,"english",NA,3,0,162666,46,2.7111,8,0,150,149
126,"A03846191RWU57N8DCK72:3X87C8JFV7JUSCXH00P6SHUCLALQSJ",1484510953955,26,20,145,149,"Some",1,"english",NA,3,0,162666,46,2.7111,8,0,149,145
127,"A03846191RWU57N8DCK72:3X87C8JFV7JUSCXH00P6SHUCLALQSJ",1484510954209,27,253,146,145,"Some",1,"english",NA,3,0,162666,46,2.7111,8,1,146,145
128,"A03846191RWU57N8DCK72:3X87C8JFV7JUSCXH00P6SHUCLALQSJ",1484510954349,28,139,146,139,"Some",1,"english",NA,3,0,162666,46,2.7111,8,1,146,139
129,"A03846191RWU57N8DCK72:3X87C8JFV7JUSCXH00P6SHUCLALQSJ",1484510954557,29,207,146,132,"Some",1,"english",NA,3,0,162666,46,2.7111,8,1,146,132
130,"A03846191RWU57N8DCK72:3X87C8JFV7JUSCXH00P6SHUCLALQSJ",1484510954765,30,207,146,226,"Some",1,"english",NA,3,0,162666,46,2.7111,8,0,226,146
131,"A03846191RWU57N8DCK72:3X87C8JFV7JUSCXH00P6SHUCLALQSJ",1484510954920,31,154,134,146,"Some",1,"english",NA,3,0,162666,46,2.7111,8,0,146,134
132,"A03846191RWU57N8DCK72:3X87C8JFV7JUSCXH00P6SHUCLALQSJ",1484510955176,32,254,134,121,"Some",1,"english",NA,3,0,162666,46,2.7111,8,1,134,121
133,"A03846191RWU57N8DCK72:3X87C8JFV7JUSCXH00P6SHUCLALQSJ",1484510955367,33,190,126,134,"Some",1,"english",NA,3,0,162666,46,2.7111,8,0,134,126
134,"A03846191RWU57N8DCK72:3X87C8JFV7JUSCXH00P6SHUCLALQSJ",1484510955771,34,403,126,64,"Some",1,"english",NA,3,0,162666,46,2.7111,8,1,126,64
135,"A03846191RWU57N8DCK72:3X87C8JFV7JUSCXH00P6SHUCLALQSJ",1484510955775,35,3,126,320,"Some",1,"english",NA,3,0,162666,46,2.7111,8,0,320,126
136,"A03846191RWU57N8DCK72:3X87C8JFV7JUSCXH00P6SHUCLALQSJ",1484510955869,36,93,111,126,"Some",1,"english",NA,3,0,162666,46,2.7111,8,0,126,111
137,"A03846191RWU57N8DCK72:3X87C8JFV7JUSCXH00P6SHUCLALQSJ",1484510955963,37,93,111,111,"Some",1,"english",NA,3,0,162666,46,2.7111,8,0,111,111
138,"A03846191RWU57N8DCK72:3X87C8JFV7JUSCXH00P6SHUCLALQSJ",1484510956117,38,153,379,111,"Some",1,"english",NA,3,0,162666,46,2.7111,8,1,379,111
139,"A03846191RWU57N8DCK72:3X87C8JFV7JUSCXH00P6SHUCLALQSJ",1484511017502,39,61384,379,375,"Some",1,"english",NA,3,0,162666,46,2.7111,8,1,379,375
140,"A03846191RWU57N8DCK72:3X87C8JFV7JUSCXH00P6SHUCLALQSJ",1484511017647,40,143,349,379,"Some",1,"english",NA,3,0,162666,46,2.7111,8,0,379,349
141,"A03846191RWU57N8DCK72:3X87C8JFV7JUSCXH00P6SHUCLALQSJ",1484511017809,41,161,349,337,"Some",1,"english",NA,3,0,162666,46,2.7111,8,1,349,337
142,"A03846191RWU57N8DCK72:3X87C8JFV7JUSCXH00P6SHUCLALQSJ",1484511017939,42,129,349,26,"Some",1,"english",NA,3,0,162666,46,2.7111,8,1,349,26
143,"A03846191RWU57N8DCK72:3X87C8JFV7JUSCXH00P6SHUCLALQSJ",1484511018063,43,123,349,343,"Some",1,"english",NA,3,0,162666,46,2.7111,8,1,349,343
144,"A03846191RWU57N8DCK72:3X87C8JFV7JUSCXH00P6SHUCLALQSJ",1484511018211,44,147,349,368,"Some",1,"english",NA,3,0,162666,46,2.7111,8,0,368,349
145,"A03846191RWU57N8DCK72:3X87C8JFV7JUSCXH00P6SHUCLALQSJ",1484511018365,45,153,332,349,"Some",1,"english",NA,3,0,162666,46,2.7111,8,0,349,332
146,"A03846191RWU57N8DCK72:3X87C8JFV7JUSCXH00P6SHUCLALQSJ",1484511018515,46,148,332,345,"Some",1,"english",NA,3,0,162666,46,2.7111,8,0,345,332
147,"A03846191RWU57N8DCK72:3X87C8JFV7JUSCXH00P6SHUCLALQSJ",1484511018781,47,265,311,332,"Some",1,"english",NA,3,0,162666,46,2.7111,8,0,332,311
148,"A03846191RWU57N8DCK72:3X87C8JFV7JUSCXH00P6SHUCLALQSJ",1484511018997,48,215,320,311,"Some",1,"english",NA,3,0,162666,46,2.7111,8,1,320,311
149,"A03846191RWU57N8DCK72:3X87C8JFV7JUSCXH00P6SHUCLALQSJ",1484511019145,49,147,320,66,"Some",1,"english",NA,3,0,162666,46,2.7111,8,1,320,66
150,"A03846191RWU57N8DCK72:3X87C8JFV7JUSCXH00P6SHUCLALQSJ",1484511019283,50,137,320,325,"Some",1,"english",NA,3,0,162666,46,2.7111,8,0,325,320
161,"A03846191RWU57N8DCK72:3X87C8JFV7JUSCXH00P6SHUCLALQSJ",1484511023103,11,170,28,21,"About half",1,"english",NA,3,0,162666,46,2.7111,1,1,28,21
162,"A03846191RWU57N8DCK72:3X87C8JFV7JUSCXH00P6SHUCLALQSJ",1484511023319,12,215,28,28,"About half",1,"english",NA,3,0,162666,46,2.7111,1,0,28,28
163,"A03846191RWU57N8DCK72:3X87C8JFV7JUSCXH00P6SHUCLALQSJ",1484511023559,13,239,28,43,"About half",1,"english",NA,3,0,162666,46,2.7111,1,0,43,28
164,"A03846191RWU57N8DCK72:3X87C8JFV7JUSCXH00P6SHUCLALQSJ",1484511023759,14,198,50,28,"About half",1,"english",NA,3,0,162666,46,2.7111,1,1,50,28
165,"A03846191RWU57N8DCK72:3X87C8JFV7JUSCXH00P6SHUCLALQSJ",1484511023953,15,193,319,50,"About half",1,"english",NA,3,0,162666,46,2.7111,1,1,319,50
166,"A03846191RWU57N8DCK72:3X87C8JFV7JUSCXH00P6SHUCLALQSJ",1484511024189,16,235,329,319,"About half",1,"english",NA,3,0,162666,46,2.7111,1,1,329,319
167,"A03846191RWU57N8DCK72:3X87C8JFV7JUSCXH00P6SHUCLALQSJ",1484511024385,17,194,312,329,"About half",1,"english",NA,3,0,162666,46,2.7111,1,0,329,312
168,"A03846191RWU57N8DCK72:3X87C8JFV7JUSCXH00P6SHUCLALQSJ",1484511024555,18,169,312,283,"About half",1,"english",NA,3,0,162666,46,2.7111,1,1,312,283
169,"A03846191RWU57N8DCK72:3X87C8JFV7JUSCXH00P6SHUCLALQSJ",1484511024761,19,205,196,312,"About half",1,"english",NA,3,0,162666,46,2.7111,1,0,312,196
170,"A03846191RWU57N8DCK72:3X87C8JFV7JUSCXH00P6SHUCLALQSJ",1484511024925,20,163,198,196,"About half",1,"english",NA,3,0,162666,46,2.7111,1,1,198,196
171,"A03846191RWU57N8DCK72:3X87C8JFV7JUSCXH00P6SHUCLALQSJ",1484511025119,21,193,325,198,"About half",1,"english",NA,3,0,162666,46,2.7111,1,1,325,198
172,"A03846191RWU57N8DCK72:3X87C8JFV7JUSCXH00P6SHUCLALQSJ",1484511025303,22,183,338,325,"About half",1,"english",NA,3,0,162666,46,2.7111,1,1,338,325
173,"A03846191RWU57N8DCK72:3X87C8JFV7JUSCXH00P6SHUCLALQSJ",1484511025469,23,164,351,338,"About half",1,"english",NA,3,0,162666,46,2.7111,1,1,351,338
174,"A03846191RWU57N8DCK72:3X87C8JFV7JUSCXH00P6SHUCLALQSJ",1484511025627,24,157,346,351,"About half",1,"english",NA,3,0,162666,46,2.7111,1,0,351,346
175,"A03846191RWU57N8DCK72:3X87C8JFV7JUSCXH00P6SHUCLALQSJ",1484511025934,25,306,30,346,"About half",1,"english",NA,3,0,162666,46,2.7111,1,0,346,30
176,"A03846191RWU57N8DCK72:3X87C8JFV7JUSCXH00P6SHUCLALQSJ",1484511026107,26,171,15,30,"About half",1,"english",NA,3,0,162666,46,2.7111,1,0,30,15
177,"A03846191RWU57N8DCK72:3X87C8JFV7JUSCXH00P6SHUCLALQSJ",1484511026253,27,145,15,28,"About half",1,"english",NA,3,0,162666,46,2.7111,1,0,28,15
178,"A03846191RWU57N8DCK72:3X87C8JFV7JUSCXH00P6SHUCLALQSJ",1484511026431,28,177,419,15,"About half",1,"english",NA,3,0,162666,46,2.7111,1,1,419,15
179,"A03846191RWU57N8DCK72:3X87C8JFV7JUSCXH00P6SHUCLALQSJ",1484511026593,29,161,1,419,"About half",1,"english",NA,3,0,162666,46,2.7111,1,0,419,1
180,"A03846191RWU57N8DCK72:3X87C8JFV7JUSCXH00P6SHUCLALQSJ",1484511026777,30,183,415,1,"About half",1,"english",NA,3,0,162666,46,2.7111,1,1,415,1
181,"A03846191RWU57N8DCK72:3X87C8JFV7JUSCXH00P6SHUCLALQSJ",1484511026987,31,208,68,415,"About half",1,"english",NA,3,0,162666,46,2.7111,1,0,415,68
182,"A03846191RWU57N8DCK72:3X87C8JFV7JUSCXH00P6SHUCLALQSJ",1484511027159,32,171,64,68,"About half",1,"english",NA,3,0,162666,46,2.7111,1,0,68,64
183,"A03846191RWU57N8DCK72:3X87C8JFV7JUSCXH00P6SHUCLALQSJ",1484511027349,33,189,44,64,"About half",1,"english",NA,3,0,162666,46,2.7111,1,0,64,44
184,"A03846191RWU57N8DCK72:3X87C8JFV7JUSCXH00P6SHUCLALQSJ",1484511027521,34,171,54,44,"About half",1,"english",NA,3,0,162666,46,2.7111,1,1,54,44
185,"A03846191RWU57N8DCK72:3X87C8JFV7JUSCXH00P6SHUCLALQSJ",1484511027725,35,203,34,54,"About half",1,"english",NA,3,0,162666,46,2.7111,1,0,54,34
186,"A03846191RWU57N8DCK72:3X87C8JFV7JUSCXH00P6SHUCLALQSJ",1484511028043,36,317,167,34,"About half",1,"english",NA,3,0,162666,46,2.7111,1,1,167,34
187,"A03846191RWU57N8DCK72:3X87C8JFV7JUSCXH00P6SHUCLALQSJ",1484511028175,37,131,269,167,"About half",1,"english",NA,3,0,162666,46,2.7111,1,1,269,167
188,"A03846191RWU57N8DCK72:3X87C8JFV7JUSCXH00P6SHUCLALQSJ",1484511028314,38,138,355,269,"About half",1,"english",NA,3,0,162666,46,2.7111,1,1,355,269
189,"A03846191RWU57N8DCK72:3X87C8JFV7JUSCXH00P6SHUCLALQSJ",1484511028479,39,164,46,355,"About half",1,"english",NA,3,0,162666,46,2.7111,1,0,355,46
190,"A03846191RWU57N8DCK72:3X87C8JFV7JUSCXH00P6SHUCLALQSJ",1484511028615,40,135,46,92,"About half",1,"english",NA,3,0,162666,46,2.7111,1,0,92,46
191,"A03846191RWU57N8DCK72:3X87C8JFV7JUSCXH00P6SHUCLALQSJ",1484511028753,41,137,46,340,"About half",1,"english",NA,3,0,162666,46,2.7111,1,0,340,46
192,"A03846191RWU57N8DCK72:3X87C8JFV7JUSCXH00P6SHUCLALQSJ",1484511028944,42,190,256,46,"About half",1,"english",NA,3,0,162666,46,2.7111,1,1,256,46
193,"A03846191RWU57N8DCK72:3X87C8JFV7JUSCXH00P6SHUCLALQSJ",1484511029079,43,134,280,256,"About half",1,"english",NA,3,0,162666,46,2.7111,1,1,280,256
194,"A03846191RWU57N8DCK72:3X87C8JFV7JUSCXH00P6SHUCLALQSJ",1484511029255,44,175,280,282,"About half",1,"english",NA,3,0,162666,46,2.7111,1,0,282,280
195,"A03846191RWU57N8DCK72:3X87C8JFV7JUSCXH00P6SHUCLALQSJ",1484511029449,45,193,280,301,"About half",1,"english",NA,3,0,162666,46,2.7111,1,0,301,280
196,"A03846191RWU57N8DCK72:3X87C8JFV7JUSCXH00P6SHUCLALQSJ",1484511029665,46,215,261,280,"About half",1,"english",NA,3,0,162666,46,2.7111,1,0,280,261
197,"A03846191RWU57N8DCK72:3X87C8JFV7JUSCXH00P6SHUCLALQSJ",1484511029857,47,191,284,261,"About half",1,"english",NA,3,0,162666,46,2.7111,1,1,284,261
198,"A03846191RWU57N8DCK72:3X87C8JFV7JUSCXH00P6SHUCLALQSJ",1484511030060,48,201,79,284,"About half",1,"english",NA,3,0,162666,46,2.7111,1,0,284,79
199,"A03846191RWU57N8DCK72:3X87C8JFV7JUSCXH00P6SHUCLALQSJ",1484511030267,49,206,429,79,"About half",1,"english",NA,3,0,162666,46,2.7111,1,1,429,79
200,"A03846191RWU57N8DCK72:3X87C8JFV7JUSCXH00P6SHUCLALQSJ",1484511030429,50,161,429,350,"About half",1,"english",NA,3,0,162666,46,2.7111,1,1,429,350
211,"A10ZOUOZZ3EOAJ:31HQ4X3T3TIJ1FH48VHABVVIB4YLSP",1484511296321,11,2668,12,147,"Few",0,"english","Interesting and enjoyable task!",10,4,725726,47,12.0954333333333,3,0,147,12
212,"A10ZOUOZZ3EOAJ:31HQ4X3T3TIJ1FH48VHABVVIB4YLSP",1484511300663,12,4341,12,423,"Few",0,"english","Interesting and enjoyable task!",10,4,725726,47,12.0954333333333,3,0,423,12
213,"A10ZOUOZZ3EOAJ:31HQ4X3T3TIJ1FH48VHABVVIB4YLSP",1484511303584,13,2914,12,420,"Few",1,"english","Interesting and enjoyable task!",10,4,725726,47,12.0954333333333,3,0,420,12
214,"A10ZOUOZZ3EOAJ:31HQ4X3T3TIJ1FH48VHABVVIB4YLSP",1484511307184,14,3597,16,12,"Few",1,"english","Interesting and enjoyable task!",10,4,725726,47,12.0954333333333,3,1,16,12
215,"A10ZOUOZZ3EOAJ:31HQ4X3T3TIJ1FH48VHABVVIB4YLSP",1484511310053,15,2866,16,33,"Few",0,"english","Interesting and enjoyable task!",10,4,725726,47,12.0954333333333,3,0,33,16
216,"A10ZOUOZZ3EOAJ:31HQ4X3T3TIJ1FH48VHABVVIB4YLSP",1484511314794,16,4741,16,16,"Few",1,"english","Interesting and enjoyable task!",10,4,725726,47,12.0954333333333,3,0,16,16
217,"A10ZOUOZZ3EOAJ:31HQ4X3T3TIJ1FH48VHABVVIB4YLSP",1484511320207,17,5410,16,16,"Few",1,"english","Interesting and enjoyable task!",10,4,725726,47,12.0954333333333,3,0,16,16
218,"A10ZOUOZZ3EOAJ:31HQ4X3T3TIJ1FH48VHABVVIB4YLSP",1484511323851,18,3643,16,37,"Few",0,"english","Interesting and enjoyable task!",10,4,725726,47,12.0954333333333,3,0,37,16
219,"A10ZOUOZZ3EOAJ:31HQ4X3T3TIJ1FH48VHABVVIB4YLSP",1484511328141,19,4285,4,16,"Few",1,"english","Interesting and enjoyable task!",10,4,725726,47,12.0954333333333,3,0,16,4
220,"A10ZOUOZZ3EOAJ:31HQ4X3T3TIJ1FH48VHABVVIB4YLSP",1484511334976,20,6834,4,31,"Few",1,"english","Interesting and enjoyable task!",10,4,725726,47,12.0954333333333,3,0,31,4
221,"A10ZOUOZZ3EOAJ:31HQ4X3T3TIJ1FH48VHABVVIB4YLSP",1484511337920,21,2932,4,238,"Few",0,"english","Interesting and enjoyable task!",10,4,725726,47,12.0954333333333,3,0,238,4
222,"A10ZOUOZZ3EOAJ:31HQ4X3T3TIJ1FH48VHABVVIB4YLSP",1484511340840,22,2914,4,430,"Few",1,"english","Interesting and enjoyable task!",10,4,725726,47,12.0954333333333,3,0,430,4
223,"A10ZOUOZZ3EOAJ:31HQ4X3T3TIJ1FH48VHABVVIB4YLSP",1484511344827,23,3984,4,166,"Few",1,"english","Interesting and enjoyable task!",10,4,725726,47,12.0954333333333,3,0,166,4
224,"A10ZOUOZZ3EOAJ:31HQ4X3T3TIJ1FH48VHABVVIB4YLSP",1484511350556,24,5728,4,66,"Few",1,"english","Interesting and enjoyable task!",10,4,725726,47,12.0954333333333,3,0,66,4
225,"A10ZOUOZZ3EOAJ:31HQ4X3T3TIJ1FH48VHABVVIB4YLSP",1484511353799,25,3234,4,110,"Few",1,"english","Interesting and enjoyable task!",10,4,725726,47,12.0954333333333,3,0,110,4
226,"A10ZOUOZZ3EOAJ:31HQ4X3T3TIJ1FH48VHABVVIB4YLSP",1484511358493,26,4683,4,420,"Few",0,"english","Interesting and enjoyable task!",10,4,725726,47,12.0954333333333,3,0,420,4
227,"A10ZOUOZZ3EOAJ:31HQ4X3T3TIJ1FH48VHABVVIB4YLSP",1484511364144,27,5645,4,225,"Few",1,"english","Interesting and enjoyable task!",10,4,725726,47,12.0954333333333,3,0,225,4
228,"A10ZOUOZZ3EOAJ:31HQ4X3T3TIJ1FH48VHABVVIB4YLSP",1484511367917,28,3763,29,4,"Few",1,"english","Interesting and enjoyable task!",10,4,725726,47,12.0954333333333,3,1,29,4
229,"A10ZOUOZZ3EOAJ:31HQ4X3T3TIJ1FH48VHABVVIB4YLSP",1484511373132,29,5212,29,21,"Few",0,"english","Interesting and enjoyable task!",10,4,725726,47,12.0954333333333,3,1,29,21
230,"A10ZOUOZZ3EOAJ:31HQ4X3T3TIJ1FH48VHABVVIB4YLSP",1484511377862,30,4719,5,29,"Few",0,"english","Interesting and enjoyable task!",10,4,725726,47,12.0954333333333,3,0,29,5
231,"A10ZOUOZZ3EOAJ:31HQ4X3T3TIJ1FH48VHABVVIB4YLSP",1484511382469,31,4607,5,202,"Few",0,"english","Interesting and enjoyable task!",10,4,725726,47,12.0954333333333,3,0,202,5
232,"A10ZOUOZZ3EOAJ:31HQ4X3T3TIJ1FH48VHABVVIB4YLSP",1484511386353,32,3884,417,5,"Few",0,"english","Interesting and enjoyable task!",10,4,725726,47,12.0954333333333,3,1,417,5
233,"A10ZOUOZZ3EOAJ:31HQ4X3T3TIJ1FH48VHABVVIB4YLSP",1484511388221,33,1867,15,417,"Few",1,"english","Interesting and enjoyable task!",10,4,725726,47,12.0954333333333,3,0,417,15
234,"A10ZOUOZZ3EOAJ:31HQ4X3T3TIJ1FH48VHABVVIB4YLSP",1484511391539,34,3311,7,15,"Few",0,"english","Interesting and enjoyable task!",10,4,725726,47,12.0954333333333,3,0,15,7
235,"A10ZOUOZZ3EOAJ:31HQ4X3T3TIJ1FH48VHABVVIB4YLSP",1484511395013,35,3461,7,7,"Few",1,"english","Interesting and enjoyable task!",10,4,725726,47,12.0954333333333,3,0,7,7
236,"A10ZOUOZZ3EOAJ:31HQ4X3T3TIJ1FH48VHABVVIB4YLSP",1484511398933,36,3907,7,424,"Few",1,"english","Interesting and enjoyable task!",10,4,725726,47,12.0954333333333,3,0,424,7
237,"A10ZOUOZZ3EOAJ:31HQ4X3T3TIJ1FH48VHABVVIB4YLSP",1484511401585,37,2652,7,282,"Few",1,"english","Interesting and enjoyable task!",10,4,725726,47,12.0954333333333,3,0,282,7
238,"A10ZOUOZZ3EOAJ:31HQ4X3T3TIJ1FH48VHABVVIB4YLSP",1484511404775,38,3184,7,271,"Few",0,"english","Interesting and enjoyable task!",10,4,725726,47,12.0954333333333,3,0,271,7
239,"A10ZOUOZZ3EOAJ:31HQ4X3T3TIJ1FH48VHABVVIB4YLSP",1484511408860,39,4072,7,36,"Few",1,"english","Interesting and enjoyable task!",10,4,725726,47,12.0954333333333,3,0,36,7
240,"A10ZOUOZZ3EOAJ:31HQ4X3T3TIJ1FH48VHABVVIB4YLSP",1484511411821,40,2944,7,46,"Few",1,"english","Interesting and enjoyable task!",10,4,725726,47,12.0954333333333,3,0,46,7
241,"A10ZOUOZZ3EOAJ:31HQ4X3T3TIJ1FH48VHABVVIB4YLSP",1484511415161,41,3339,7,410,"Few",1,"english","Interesting and enjoyable task!",10,4,725726,47,12.0954333333333,3,0,410,7
242,"A10ZOUOZZ3EOAJ:31HQ4X3T3TIJ1FH48VHABVVIB4YLSP",1484511417552,42,2381,7,241,"Few",0,"english","Interesting and enjoyable task!",10,4,725726,47,12.0954333333333,3,0,241,7
243,"A10ZOUOZZ3EOAJ:31HQ4X3T3TIJ1FH48VHABVVIB4YLSP",1484511420547,43,2981,7,0,"Few",1,"english","Interesting and enjoyable task!",10,4,725726,47,12.0954333333333,3,1,7,0
244,"A10ZOUOZZ3EOAJ:31HQ4X3T3TIJ1FH48VHABVVIB4YLSP",1484511423629,44,3079,7,421,"Few",0,"english","Interesting and enjoyable task!",10,4,725726,47,12.0954333333333,3,0,421,7
245,"A10ZOUOZZ3EOAJ:31HQ4X3T3TIJ1FH48VHABVVIB4YLSP",1484511427799,45,4170,6,7,"Few",1,"english","Interesting and enjoyable task!",10,4,725726,47,12.0954333333333,3,0,7,6
246,"A10ZOUOZZ3EOAJ:31HQ4X3T3TIJ1FH48VHABVVIB4YLSP",1484511429691,46,1876,6,431,"Few",0,"english","Interesting and enjoyable task!",10,4,725726,47,12.0954333333333,3,0,431,6
247,"A10ZOUOZZ3EOAJ:31HQ4X3T3TIJ1FH48VHABVVIB4YLSP",1484511432061,47,2364,6,223,"Few",0,"english","Interesting and enjoyable task!",10,4,725726,47,12.0954333333333,3,0,223,6
248,"A10ZOUOZZ3EOAJ:31HQ4X3T3TIJ1FH48VHABVVIB4YLSP",1484511435489,48,3421,6,18,"Few",0,"english","Interesting and enjoyable task!",10,4,725726,47,12.0954333333333,3,0,18,6
249,"A10ZOUOZZ3EOAJ:31HQ4X3T3TIJ1FH48VHABVVIB4YLSP",1484511440428,49,4937,6,21,"Few",0,"english","Interesting and enjoyable task!",10,4,725726,47,12.0954333333333,3,0,21,6
250,"A10ZOUOZZ3EOAJ:31HQ4X3T3TIJ1FH48VHABVVIB4YLSP",1484511444330,50,3897,6,10,"Few",0,"english","Interesting and enjoyable task!",10,4,725726,47,12.0954333333333,3,0,10,6
261,"A10ZOUOZZ3EOAJ:31HQ4X3T3TIJ1FH48VHABVVIB4YLSP",1484511482912,11,3669,371,371,"Most",1,"english","Interesting and enjoyable task!",10,4,725726,47,12.0954333333333,7,0,371,371
262,"A10ZOUOZZ3EOAJ:31HQ4X3T3TIJ1FH48VHABVVIB4YLSP",1484511485380,12,2452,401,371,"Most",1,"english","Interesting and enjoyable task!",10,4,725726,47,12.0954333333333,7,1,401,371
263,"A10ZOUOZZ3EOAJ:31HQ4X3T3TIJ1FH48VHABVVIB4YLSP",1484511487350,13,1970,406,401,"Most",0,"english","Interesting and enjoyable task!",10,4,725726,47,12.0954333333333,7,1,406,401
264,"A10ZOUOZZ3EOAJ:31HQ4X3T3TIJ1FH48VHABVVIB4YLSP",1484511489673,14,2311,406,166,"Most",1,"english","Interesting and enjoyable task!",10,4,725726,47,12.0954333333333,7,1,406,166
265,"A10ZOUOZZ3EOAJ:31HQ4X3T3TIJ1FH48VHABVVIB4YLSP",1484511492253,15,2574,406,348,"Most",0,"english","Interesting and enjoyable task!",10,4,725726,47,12.0954333333333,7,1,406,348
266,"A10ZOUOZZ3EOAJ:31HQ4X3T3TIJ1FH48VHABVVIB4YLSP",1484511494029,16,1759,406,399,"Most",1,"english","Interesting and enjoyable task!",10,4,725726,47,12.0954333333333,7,1,406,399
267,"A10ZOUOZZ3EOAJ:31HQ4X3T3TIJ1FH48VHABVVIB4YLSP",1484511496158,17,2117,432,406,"Most",0,"english","Interesting and enjoyable task!",10,4,725726,47,12.0954333333333,7,1,432,406
268,"A10ZOUOZZ3EOAJ:31HQ4X3T3TIJ1FH48VHABVVIB4YLSP",1484511498250,18,2091,432,404,"Most",0,"english","Interesting and enjoyable task!",10,4,725726,47,12.0954333333333,7,1,432,404
269,"A10ZOUOZZ3EOAJ:31HQ4X3T3TIJ1FH48VHABVVIB4YLSP",1484511501093,19,2830,432,4,"Most",1,"english","Interesting and enjoyable task!",10,4,725726,47,12.0954333333333,7,1,432,4
270,"A10ZOUOZZ3EOAJ:31HQ4X3T3TIJ1FH48VHABVVIB4YLSP",1484511503613,20,2514,432,425,"Most",1,"english","Interesting and enjoyable task!",10,4,725726,47,12.0954333333333,7,1,432,425
271,"A10ZOUOZZ3EOAJ:31HQ4X3T3TIJ1FH48VHABVVIB4YLSP",1484511506797,21,3184,432,26,"Most",1,"english","Interesting and enjoyable task!",10,4,725726,47,12.0954333333333,7,1,432,26
272,"A10ZOUOZZ3EOAJ:31HQ4X3T3TIJ1FH48VHABVVIB4YLSP",1484511510103,22,3293,432,247,"Most",1,"english","Interesting and enjoyable task!",10,4,725726,47,12.0954333333333,7,1,432,247
273,"A10ZOUOZZ3EOAJ:31HQ4X3T3TIJ1FH48VHABVVIB4YLSP",1484511512469,23,2360,432,284,"Most",1,"english","Interesting and enjoyable task!",10,4,725726,47,12.0954333333333,7,1,432,284
274,"A10ZOUOZZ3EOAJ:31HQ4X3T3TIJ1FH48VHABVVIB4YLSP",1484511514756,24,2275,432,16,"Most",1,"english","Interesting and enjoyable task!",10,4,725726,47,12.0954333333333,7,1,432,16
275,"A10ZOUOZZ3EOAJ:31HQ4X3T3TIJ1FH48VHABVVIB4YLSP",1484511518406,25,3649,432,0,"Most",1,"english","Interesting and enjoyable task!",10,4,725726,47,12.0954333333333,7,1,432,0
276,"A10ZOUOZZ3EOAJ:31HQ4X3T3TIJ1FH48VHABVVIB4YLSP",1484511521017,26,2598,432,17,"Most",0,"english","Interesting and enjoyable task!",10,4,725726,47,12.0954333333333,7,1,432,17
277,"A10ZOUOZZ3EOAJ:31HQ4X3T3TIJ1FH48VHABVVIB4YLSP",1484511524953,27,3934,432,214,"Most",0,"english","Interesting and enjoyable task!",10,4,725726,47,12.0954333333333,7,1,432,214
278,"A10ZOUOZZ3EOAJ:31HQ4X3T3TIJ1FH48VHABVVIB4YLSP",1484511529067,28,4110,432,30,"Most",1,"english","Interesting and enjoyable task!",10,4,725726,47,12.0954333333333,7,1,432,30
279,"A10ZOUOZZ3EOAJ:31HQ4X3T3TIJ1FH48VHABVVIB4YLSP",1484511533377,29,4308,432,96,"Most",0,"english","Interesting and enjoyable task!",10,4,725726,47,12.0954333333333,7,1,432,96
280,"A10ZOUOZZ3EOAJ:31HQ4X3T3TIJ1FH48VHABVVIB4YLSP",1484511537286,30,3907,432,412,"Most",0,"english","Interesting and enjoyable task!",10,4,725726,47,12.0954333333333,7,1,432,412
281,"A10ZOUOZZ3EOAJ:31HQ4X3T3TIJ1FH48VHABVVIB4YLSP",1484511539474,31,2187,432,258,"Most",1,"english","Interesting and enjoyable task!",10,4,725726,47,12.0954333333333,7,1,432,258
282,"A10ZOUOZZ3EOAJ:31HQ4X3T3TIJ1FH48VHABVVIB4YLSP",1484511542553,32,3069,432,30,"Most",1,"english","Interesting and enjoyable task!",10,4,725726,47,12.0954333333333,7,1,432,30
283,"A10ZOUOZZ3EOAJ:31HQ4X3T3TIJ1FH48VHABVVIB4YLSP",1484511545562,33,3006,432,105,"Most",0,"english","Interesting and enjoyable task!",10,4,725726,47,12.0954333333333,7,1,432,105
284,"A10ZOUOZZ3EOAJ:31HQ4X3T3TIJ1FH48VHABVVIB4YLSP",1484511549070,34,3497,430,432,"Most",1,"english","Interesting and enjoyable task!",10,4,725726,47,12.0954333333333,7,0,432,430
285,"A10ZOUOZZ3EOAJ:31HQ4X3T3TIJ1FH48VHABVVIB4YLSP",1484511551036,35,1950,430,0,"Most",0,"english","Interesting and enjoyable task!",10,4,725726,47,12.0954333333333,7,1,430,0
286,"A10ZOUOZZ3EOAJ:31HQ4X3T3TIJ1FH48VHABVVIB4YLSP",1484511553656,36,2620,430,359,"Most",0,"english","Interesting and enjoyable task!",10,4,725726,47,12.0954333333333,7,1,430,359
287,"A10ZOUOZZ3EOAJ:31HQ4X3T3TIJ1FH48VHABVVIB4YLSP",1484511559030,37,5359,430,430,"Most",1,"english","Interesting and enjoyable task!",10,4,725726,47,12.0954333333333,7,0,430,430
288,"A10ZOUOZZ3EOAJ:31HQ4X3T3TIJ1FH48VHABVVIB4YLSP",1484511562223,38,3183,430,406,"Most",0,"english","Interesting and enjoyable task!",10,4,725726,47,12.0954333333333,7,1,430,406
289,"A10ZOUOZZ3EOAJ:31HQ4X3T3TIJ1FH48VHABVVIB4YLSP",1484511566128,39,3890,430,418,"Most",1,"english","Interesting and enjoyable task!",10,4,725726,47,12.0954333333333,7,1,430,418
290,"A10ZOUOZZ3EOAJ:31HQ4X3T3TIJ1FH48VHABVVIB4YLSP",1484511568974,40,2836,430,400,"Most",1,"english","Interesting and enjoyable task!",10,4,725726,47,12.0954333333333,7,1,430,400
291,"A10ZOUOZZ3EOAJ:31HQ4X3T3TIJ1FH48VHABVVIB4YLSP",1484511572833,41,3859,430,371,"Most",1,"english","Interesting and enjoyable task!",10,4,725726,47,12.0954333333333,7,1,430,371
292,"A10ZOUOZZ3EOAJ:31HQ4X3T3TIJ1FH48VHABVVIB4YLSP",1484511575902,42,3060,430,32,"Most",1,"english","Interesting and enjoyable task!",10,4,725726,47,12.0954333333333,7,1,430,32
293,"A10ZOUOZZ3EOAJ:31HQ4X3T3TIJ1FH48VHABVVIB4YLSP",1484511581330,43,5424,430,418,"Most",0,"english","Interesting and enjoyable task!",10,4,725726,47,12.0954333333333,7,1,430,418
294,"A10ZOUOZZ3EOAJ:31HQ4X3T3TIJ1FH48VHABVVIB4YLSP",1484511584103,44,2771,430,405,"Most",0,"english","Interesting and enjoyable task!",10,4,725726,47,12.0954333333333,7,1,430,405
295,"A10ZOUOZZ3EOAJ:31HQ4X3T3TIJ1FH48VHABVVIB4YLSP",1484511588013,45,3910,430,316,"Most",1,"english","Interesting and enjoyable task!",10,4,725726,47,12.0954333333333,7,1,430,316
296,"A10ZOUOZZ3EOAJ:31HQ4X3T3TIJ1FH48VHABVVIB4YLSP",1484511590005,46,1985,430,16,"Most",0,"english","Interesting and enjoyable task!",10,4,725726,47,12.0954333333333,7,1,430,16
297,"A10ZOUOZZ3EOAJ:31HQ4X3T3TIJ1FH48VHABVVIB4YLSP",1484511593296,47,3284,430,199,"Most",1,"english","Interesting and enjoyable task!",10,4,725726,47,12.0954333333333,7,1,430,199
298,"A10ZOUOZZ3EOAJ:31HQ4X3T3TIJ1FH48VHABVVIB4YLSP",1484511596422,48,3119,430,415,"Most",1,"english","Interesting and enjoyable task!",10,4,725726,47,12.0954333333333,7,1,430,415
299,"A10ZOUOZZ3EOAJ:31HQ4X3T3TIJ1FH48VHABVVIB4YLSP",1484511598562,49,2139,430,354,"Most",0,"english","Interesting and enjoyable task!",10,4,725726,47,12.0954333333333,7,1,430,354
300,"A10ZOUOZZ3EOAJ:31HQ4X3T3TIJ1FH48VHABVVIB4YLSP",1484511601398,50,2833,430,150,"Most",1,"english","Interesting and enjoyable task!",10,4,725726,47,12.0954333333333,7,1,430,150
311,"A10ZOUOZZ3EOAJ:31HQ4X3T3TIJ1FH48VHABVVIB4YLSP",1484511640266,11,1997,432,404,"Many",0,"english","Interesting and enjoyable task!",10,4,725726,47,12.0954333333333,6,1,432,404
312,"A10ZOUOZZ3EOAJ:31HQ4X3T3TIJ1FH48VHABVVIB4YLSP",1484511643333,12,3056,432,29,"Many",1,"english","Interesting and enjoyable task!",10,4,725726,47,12.0954333333333,6,1,432,29
313,"A10ZOUOZZ3EOAJ:31HQ4X3T3TIJ1FH48VHABVVIB4YLSP",1484511646113,13,2772,432,423,"Many",1,"english","Interesting and enjoyable task!",10,4,725726,47,12.0954333333333,6,1,432,423
314,"A10ZOUOZZ3EOAJ:31HQ4X3T3TIJ1FH48VHABVVIB4YLSP",1484511648459,14,2330,432,406,"Many",0,"english","Interesting and enjoyable task!",10,4,725726,47,12.0954333333333,6,1,432,406
315,"A10ZOUOZZ3EOAJ:31HQ4X3T3TIJ1FH48VHABVVIB4YLSP",1484511650470,15,2003,432,255,"Many",1,"english","Interesting and enjoyable task!",10,4,725726,47,12.0954333333333,6,1,432,255
316,"A10ZOUOZZ3EOAJ:31HQ4X3T3TIJ1FH48VHABVVIB4YLSP",1484511652591,16,2108,432,416,"Many",0,"english","Interesting and enjoyable task!",10,4,725726,47,12.0954333333333,6,1,432,416
317,"A10ZOUOZZ3EOAJ:31HQ4X3T3TIJ1FH48VHABVVIB4YLSP",1484511654479,17,1888,432,92,"Many",0,"english","Interesting and enjoyable task!",10,4,725726,47,12.0954333333333,6,1,432,92
318,"A10ZOUOZZ3EOAJ:31HQ4X3T3TIJ1FH48VHABVVIB4YLSP",1484511657989,18,3495,432,421,"Many",1,"english","Interesting and enjoyable task!",10,4,725726,47,12.0954333333333,6,1,432,421
319,"A10ZOUOZZ3EOAJ:31HQ4X3T3TIJ1FH48VHABVVIB4YLSP",1484511660293,19,2303,432,84,"Many",1,"english","Interesting and enjoyable task!",10,4,725726,47,12.0954333333333,6,1,432,84
320,"A10ZOUOZZ3EOAJ:31HQ4X3T3TIJ1FH48VHABVVIB4YLSP",1484511663355,20,3051,432,413,"Many",0,"english","Interesting and enjoyable task!",10,4,725726,47,12.0954333333333,6,1,432,413
321,"A10ZOUOZZ3EOAJ:31HQ4X3T3TIJ1FH48VHABVVIB4YLSP",1484511665895,21,2535,432,0,"Many",0,"english","Interesting and enjoyable task!",10,4,725726,47,12.0954333333333,6,1,432,0
322,"A10ZOUOZZ3EOAJ:31HQ4X3T3TIJ1FH48VHABVVIB4YLSP",1484511669816,22,3920,432,422,"Many",0,"english","Interesting and enjoyable task!",10,4,725726,47,12.0954333333333,6,1,432,422
323,"A10ZOUOZZ3EOAJ:31HQ4X3T3TIJ1FH48VHABVVIB4YLSP",1484511673276,23,3450,432,410,"Many",0,"english","Interesting and enjoyable task!",10,4,725726,47,12.0954333333333,6,1,432,410
324,"A10ZOUOZZ3EOAJ:31HQ4X3T3TIJ1FH48VHABVVIB4YLSP",1484511676026,24,2736,432,421,"Many",1,"english","Interesting and enjoyable task!",10,4,725726,47,12.0954333333333,6,1,432,421
325,"A10ZOUOZZ3EOAJ:31HQ4X3T3TIJ1FH48VHABVVIB4YLSP",1484511679231,25,3193,432,406,"Many",0,"english","Interesting and enjoyable task!",10,4,725726,47,12.0954333333333,6,1,432,406
326,"A10ZOUOZZ3EOAJ:31HQ4X3T3TIJ1FH48VHABVVIB4YLSP",1484511681385,26,2141,432,228,"Many",0,"english","Interesting and enjoyable task!",10,4,725726,47,12.0954333333333,6,1,432,228
327,"A10ZOUOZZ3EOAJ:31HQ4X3T3TIJ1FH48VHABVVIB4YLSP",1484511684395,27,3009,432,20,"Many",1,"english","Interesting and enjoyable task!",10,4,725726,47,12.0954333333333,6,1,432,20
328,"A10ZOUOZZ3EOAJ:31HQ4X3T3TIJ1FH48VHABVVIB4YLSP",1484511687197,28,2787,432,416,"Many",1,"english","Interesting and enjoyable task!",10,4,725726,47,12.0954333333333,6,1,432,416
329,"A10ZOUOZZ3EOAJ:31HQ4X3T3TIJ1FH48VHABVVIB4YLSP",1484511689283,29,2085,432,427,"Many",0,"english","Interesting and enjoyable task!",10,4,725726,47,12.0954333333333,6,1,432,427
330,"A10ZOUOZZ3EOAJ:31HQ4X3T3TIJ1FH48VHABVVIB4YLSP",1484511691563,30,2279,432,415,"Many",0,"english","Interesting and enjoyable task!",10,4,725726,47,12.0954333333333,6,1,432,415
331,"A10ZOUOZZ3EOAJ:31HQ4X3T3TIJ1FH48VHABVVIB4YLSP",1484511693992,31,2415,432,21,"Many",1,"english","Interesting and enjoyable task!",10,4,725726,47,12.0954333333333,6,1,432,21
332,"A10ZOUOZZ3EOAJ:31HQ4X3T3TIJ1FH48VHABVVIB4YLSP",1484511696138,32,2146,432,5,"Many",0,"english","Interesting and enjoyable task!",10,4,725726,47,12.0954333333333,6,1,432,5
333,"A10ZOUOZZ3EOAJ:31HQ4X3T3TIJ1FH48VHABVVIB4YLSP",1484511698392,33,2249,432,244,"Many",0,"english","Interesting and enjoyable task!",10,4,725726,47,12.0954333333333,6,1,432,244
334,"A10ZOUOZZ3EOAJ:31HQ4X3T3TIJ1FH48VHABVVIB4YLSP",1484511700666,34,2264,432,1,"Many",1,"english","Interesting and enjoyable task!",10,4,725726,47,12.0954333333333,6,1,432,1
335,"A10ZOUOZZ3EOAJ:31HQ4X3T3TIJ1FH48VHABVVIB4YLSP",1484511704191,35,3513,432,415,"Many",0,"english","Interesting and enjoyable task!",10,4,725726,47,12.0954333333333,6,1,432,415
336,"A10ZOUOZZ3EOAJ:31HQ4X3T3TIJ1FH48VHABVVIB4YLSP",1484511707567,36,3369,432,1,"Many",0,"english","Interesting and enjoyable task!",10,4,725726,47,12.0954333333333,6,1,432,1
337,"A10ZOUOZZ3EOAJ:31HQ4X3T3TIJ1FH48VHABVVIB4YLSP",1484511709842,37,2266,432,77,"Many",1,"english","Interesting and enjoyable task!",10,4,725726,47,12.0954333333333,6,1,432,77
338,"A10ZOUOZZ3EOAJ:31HQ4X3T3TIJ1FH48VHABVVIB4YLSP",1484511712290,38,2438,432,262,"Many",0,"english","Interesting and enjoyable task!",10,4,725726,47,12.0954333333333,6,1,432,262
339,"A10ZOUOZZ3EOAJ:31HQ4X3T3TIJ1FH48VHABVVIB4YLSP",1484511716743,39,4448,432,1,"Many",1,"english","Interesting and enjoyable task!",10,4,725726,47,12.0954333333333,6,1,432,1
340,"A10ZOUOZZ3EOAJ:31HQ4X3T3TIJ1FH48VHABVVIB4YLSP",1484511718661,40,1904,432,3,"Many",0,"english","Interesting and enjoyable task!",10,4,725726,47,12.0954333333333,6,1,432,3
341,"A10ZOUOZZ3EOAJ:31HQ4X3T3TIJ1FH48VHABVVIB4YLSP",1484511725080,41,6409,431,432,"Many",1,"english","Interesting and enjoyable task!",10,4,725726,47,12.0954333333333,6,0,432,431
342,"A10ZOUOZZ3EOAJ:31HQ4X3T3TIJ1FH48VHABVVIB4YLSP",1484511728164,42,3075,431,411,"Many",1,"english","Interesting and enjoyable task!",10,4,725726,47,12.0954333333333,6,1,431,411
343,"A10ZOUOZZ3EOAJ:31HQ4X3T3TIJ1FH48VHABVVIB4YLSP",1484511731082,43,2907,431,307,"Many",1,"english","Interesting and enjoyable task!",10,4,725726,47,12.0954333333333,6,1,431,307
344,"A10ZOUOZZ3EOAJ:31HQ4X3T3TIJ1FH48VHABVVIB4YLSP",1484511734124,44,3035,294,431,"Many",1,"english","Interesting and enjoyable task!",10,4,725726,47,12.0954333333333,6,0,431,294
345,"A10ZOUOZZ3EOAJ:31HQ4X3T3TIJ1FH48VHABVVIB4YLSP",1484511741008,45,6881,288,294,"Many",0,"english","Interesting and enjoyable task!",10,4,725726,47,12.0954333333333,6,0,294,288
346,"A10ZOUOZZ3EOAJ:31HQ4X3T3TIJ1FH48VHABVVIB4YLSP",1484511744419,46,3408,288,174,"Many",0,"english","Interesting and enjoyable task!",10,4,725726,47,12.0954333333333,6,1,288,174
347,"A10ZOUOZZ3EOAJ:31HQ4X3T3TIJ1FH48VHABVVIB4YLSP",1484511747025,47,2598,390,288,"Many",1,"english","Interesting and enjoyable task!",10,4,725726,47,12.0954333333333,6,1,390,288
348,"A10ZOUOZZ3EOAJ:31HQ4X3T3TIJ1FH48VHABVVIB4YLSP",1484511750003,48,2970,390,366,"Many",0,"english","Interesting and enjoyable task!",10,4,725726,47,12.0954333333333,6,1,390,366
349,"A10ZOUOZZ3EOAJ:31HQ4X3T3TIJ1FH48VHABVVIB4YLSP",1484511753410,49,3401,395,390,"Many",0,"english","Interesting and enjoyable task!",10,4,725726,47,12.0954333333333,6,1,395,390
350,"A10ZOUOZZ3EOAJ:31HQ4X3T3TIJ1FH48VHABVVIB4YLSP",1484511756991,50,3580,395,69,"Many",1,"english","Interesting and enjoyable task!",10,4,725726,47,12.0954333333333,6,1,395,69
361,"A10ZOUOZZ3EOAJ:31HQ4X3T3TIJ1FH48VHABVVIB4YLSP",1484511803837,11,4071,268,291,"About half",0,"english","Interesting and enjoyable task!",10,4,725726,47,12.0954333333333,1,0,291,268
362,"A10ZOUOZZ3EOAJ:31HQ4X3T3TIJ1FH48VHABVVIB4YLSP",1484511808242,12,4390,268,284,"About half",1,"english","Interesting and enjoyable task!",10,4,725726,47,12.0954333333333,1,0,284,268
363,"A10ZOUOZZ3EOAJ:31HQ4X3T3TIJ1FH48VHABVVIB4YLSP",1484511811966,13,3712,268,285,"About half",1,"english","Interesting and enjoyable task!",10,4,725726,47,12.0954333333333,1,0,285,268
364,"A10ZOUOZZ3EOAJ:31HQ4X3T3TIJ1FH48VHABVVIB4YLSP",1484511814389,14,2419,268,259,"About half",0,"english","Interesting and enjoyable task!",10,4,725726,47,12.0954333333333,1,1,268,259
365,"A10ZOUOZZ3EOAJ:31HQ4X3T3TIJ1FH48VHABVVIB4YLSP",1484511818019,15,3625,268,246,"About half",1,"english","Interesting and enjoyable task!",10,4,725726,47,12.0954333333333,1,1,268,246
366,"A10ZOUOZZ3EOAJ:31HQ4X3T3TIJ1FH48VHABVVIB4YLSP",1484511822586,16,4562,268,252,"About half",0,"english","Interesting and enjoyable task!",10,4,725726,47,12.0954333333333,1,1,268,252
367,"A10ZOUOZZ3EOAJ:31HQ4X3T3TIJ1FH48VHABVVIB4YLSP",1484511825824,17,3226,268,81,"About half",0,"english","Interesting and enjoyable task!",10,4,725726,47,12.0954333333333,1,1,268,81
368,"A10ZOUOZZ3EOAJ:31HQ4X3T3TIJ1FH48VHABVVIB4YLSP",1484511828633,18,2807,268,238,"About half",0,"english","Interesting and enjoyable task!",10,4,725726,47,12.0954333333333,1,1,268,238
369,"A10ZOUOZZ3EOAJ:31HQ4X3T3TIJ1FH48VHABVVIB4YLSP",1484511833318,19,4682,270,268,"About half",0,"english","Interesting and enjoyable task!",10,4,725726,47,12.0954333333333,1,1,270,268
370,"A10ZOUOZZ3EOAJ:31HQ4X3T3TIJ1FH48VHABVVIB4YLSP",1484511839244,20,5916,270,270,"About half",1,"english","Interesting and enjoyable task!",10,4,725726,47,12.0954333333333,1,0,270,270
371,"A10ZOUOZZ3EOAJ:31HQ4X3T3TIJ1FH48VHABVVIB4YLSP",1484511842631,21,3383,270,388,"About half",0,"english","Interesting and enjoyable task!",10,4,725726,47,12.0954333333333,1,0,388,270
372,"A10ZOUOZZ3EOAJ:31HQ4X3T3TIJ1FH48VHABVVIB4YLSP",1484511848010,22,5368,242,270,"About half",1,"english","Interesting and enjoyable task!",10,4,725726,47,12.0954333333333,1,0,270,242
373,"A10ZOUOZZ3EOAJ:31HQ4X3T3TIJ1FH48VHABVVIB4YLSP",1484511853506,23,5494,246,242,"About half",0,"english","Interesting and enjoyable task!",10,4,725726,47,12.0954333333333,1,1,246,242
374,"A10ZOUOZZ3EOAJ:31HQ4X3T3TIJ1FH48VHABVVIB4YLSP",1484511857993,24,4487,232,246,"About half",1,"english","Interesting and enjoyable task!",10,4,725726,47,12.0954333333333,1,0,246,232
375,"A10ZOUOZZ3EOAJ:31HQ4X3T3TIJ1FH48VHABVVIB4YLSP",1484511863133,25,5131,221,232,"About half",1,"english","Interesting and enjoyable task!",10,4,725726,47,12.0954333333333,1,0,232,221
376,"A10ZOUOZZ3EOAJ:31HQ4X3T3TIJ1FH48VHABVVIB4YLSP",1484511868872,26,5736,221,205,"About half",0,"english","Interesting and enjoyable task!",10,4,725726,47,12.0954333333333,1,1,221,205
377,"A10ZOUOZZ3EOAJ:31HQ4X3T3TIJ1FH48VHABVVIB4YLSP",1484511870761,27,1885,221,398,"About half",1,"english","Interesting and enjoyable task!",10,4,725726,47,12.0954333333333,1,0,398,221
378,"A10ZOUOZZ3EOAJ:31HQ4X3T3TIJ1FH48VHABVVIB4YLSP",1484511875614,28,4850,221,192,"About half",1,"english","Interesting and enjoyable task!",10,4,725726,47,12.0954333333333,1,1,221,192
379,"A10ZOUOZZ3EOAJ:31HQ4X3T3TIJ1FH48VHABVVIB4YLSP",1484511885232,29,9608,205,221,"About half",1,"english","Interesting and enjoyable task!",10,4,725726,47,12.0954333333333,1,0,221,205
380,"A10ZOUOZZ3EOAJ:31HQ4X3T3TIJ1FH48VHABVVIB4YLSP",1484511888300,30,3063,205,17,"About half",1,"english","Interesting and enjoyable task!",10,4,725726,47,12.0954333333333,1,1,205,17
381,"A10ZOUOZZ3EOAJ:31HQ4X3T3TIJ1FH48VHABVVIB4YLSP",1484511892917,31,4603,205,147,"About half",0,"english","Interesting and enjoyable task!",10,4,725726,47,12.0954333333333,1,1,205,147
382,"A10ZOUOZZ3EOAJ:31HQ4X3T3TIJ1FH48VHABVVIB4YLSP",1484511895850,32,2921,205,204,"About half",0,"english","Interesting and enjoyable task!",10,4,725726,47,12.0954333333333,1,1,205,204
383,"A10ZOUOZZ3EOAJ:31HQ4X3T3TIJ1FH48VHABVVIB4YLSP",1484511899866,33,4001,205,205,"About half",1,"english","Interesting and enjoyable task!",10,4,725726,47,12.0954333333333,1,0,205,205
384,"A10ZOUOZZ3EOAJ:31HQ4X3T3TIJ1FH48VHABVVIB4YLSP",1484511903548,34,3677,192,205,"About half",1,"english","Interesting and enjoyable task!",10,4,725726,47,12.0954333333333,1,0,205,192
385,"A10ZOUOZZ3EOAJ:31HQ4X3T3TIJ1FH48VHABVVIB4YLSP",1484511907360,35,3811,189,192,"About half",1,"english","Interesting and enjoyable task!",10,4,725726,47,12.0954333333333,1,0,192,189
386,"A10ZOUOZZ3EOAJ:31HQ4X3T3TIJ1FH48VHABVVIB4YLSP",1484511912120,36,4745,211,189,"About half",0,"english","Interesting and enjoyable task!",10,4,725726,47,12.0954333333333,1,1,211,189
387,"A10ZOUOZZ3EOAJ:31HQ4X3T3TIJ1FH48VHABVVIB4YLSP",1484511917234,37,5114,211,234,"About half",1,"english","Interesting and enjoyable task!",10,4,725726,47,12.0954333333333,1,0,234,211
388,"A10ZOUOZZ3EOAJ:31HQ4X3T3TIJ1FH48VHABVVIB4YLSP",1484511920477,38,3230,220,211,"About half",0,"english","Interesting and enjoyable task!",10,4,725726,47,12.0954333333333,1,1,220,211
389,"A10ZOUOZZ3EOAJ:31HQ4X3T3TIJ1FH48VHABVVIB4YLSP",1484511923258,39,2767,220,374,"About half",0,"english","Interesting and enjoyable task!",10,4,725726,47,12.0954333333333,1,0,374,220
390,"A10ZOUOZZ3EOAJ:31HQ4X3T3TIJ1FH48VHABVVIB4YLSP",1484511928335,40,5066,233,220,"About half",0,"english","Interesting and enjoyable task!",10,4,725726,47,12.0954333333333,1,1,233,220
391,"A10ZOUOZZ3EOAJ:31HQ4X3T3TIJ1FH48VHABVVIB4YLSP",1484511932688,41,4341,233,244,"About half",1,"english","Interesting and enjoyable task!",10,4,725726,47,12.0954333333333,1,0,244,233
392,"A10ZOUOZZ3EOAJ:31HQ4X3T3TIJ1FH48VHABVVIB4YLSP",1484511937012,42,4321,233,257,"About half",1,"english","Interesting and enjoyable task!",10,4,725726,47,12.0954333333333,1,0,257,233
393,"A10ZOUOZZ3EOAJ:31HQ4X3T3TIJ1FH48VHABVVIB4YLSP",1484511941008,43,3995,246,233,"About half",1,"english","Interesting and enjoyable task!",10,4,725726,47,12.0954333333333,1,1,246,233
394,"A10ZOUOZZ3EOAJ:31HQ4X3T3TIJ1FH48VHABVVIB4YLSP",1484511944765,44,3754,246,260,"About half",1,"english","Interesting and enjoyable task!",10,4,725726,47,12.0954333333333,1,0,260,246
395,"A10ZOUOZZ3EOAJ:31HQ4X3T3TIJ1FH48VHABVVIB4YLSP",1484511947256,45,2489,246,268,"About half",0,"english","Interesting and enjoyable task!",10,4,725726,47,12.0954333333333,1,0,268,246
396,"A10ZOUOZZ3EOAJ:31HQ4X3T3TIJ1FH48VHABVVIB4YLSP",1484511952204,46,4933,240,246,"About half",1,"english","Interesting and enjoyable task!",10,4,725726,47,12.0954333333333,1,0,246,240
397,"A10ZOUOZZ3EOAJ:31HQ4X3T3TIJ1FH48VHABVVIB4YLSP",1484511956581,47,4365,263,240,"About half",0,"english","Interesting and enjoyable task!",10,4,725726,47,12.0954333333333,1,1,263,240
398,"A10ZOUOZZ3EOAJ:31HQ4X3T3TIJ1FH48VHABVVIB4YLSP",1484511968442,48,11853,263,277,"About half",1,"english","Interesting and enjoyable task!",10,4,725726,47,12.0954333333333,1,0,277,263
399,"A10ZOUOZZ3EOAJ:31HQ4X3T3TIJ1FH48VHABVVIB4YLSP",1484511975539,49,7089,282,263,"About half",0,"english","Interesting and enjoyable task!",10,4,725726,47,12.0954333333333,1,1,282,263
400,"A10ZOUOZZ3EOAJ:31HQ4X3T3TIJ1FH48VHABVVIB4YLSP",1484511980432,50,4880,282,353,"About half",0,"english","Interesting and enjoyable task!",10,4,725726,47,12.0954333333333,1,0,353,282
411,"A150MDVC0C92OT:3K3R2QNK8CB4FQ8Z839KLNMBW72U9H",1484511321404,11,4449,314,195,"Some",1,"english","Almost 20 min",5,2,886660,48,14.7776666666667,8,1,314,195
412,"A150MDVC0C92OT:3K3R2QNK8CB4FQ8Z839KLNMBW72U9H",1484511324118,12,2702,332,314,"Some",1,"english","Almost 20 min",5,2,886660,48,14.7776666666667,8,1,332,314
413,"A150MDVC0C92OT:3K3R2QNK8CB4FQ8Z839KLNMBW72U9H",1484511326761,13,2633,352,332,"Some",0,"english","Almost 20 min",5,2,886660,48,14.7776666666667,8,1,352,332
414,"A150MDVC0C92OT:3K3R2QNK8CB4FQ8Z839KLNMBW72U9H",1484511329180,14,2410,375,352,"Some",0,"english","Almost 20 min",5,2,886660,48,14.7776666666667,8,1,375,352
415,"A150MDVC0C92OT:3K3R2QNK8CB4FQ8Z839KLNMBW72U9H",1484511331959,15,2771,375,83,"Some",1,"english","Almost 20 min",5,2,886660,48,14.7776666666667,8,1,375,83
416,"A150MDVC0C92OT:3K3R2QNK8CB4FQ8Z839KLNMBW72U9H",1484511334540,16,2562,388,375,"Some",1,"english","Almost 20 min",5,2,886660,48,14.7776666666667,8,1,388,375
417,"A150MDVC0C92OT:3K3R2QNK8CB4FQ8Z839KLNMBW72U9H",1484511336647,17,2087,388,170,"Some",1,"english","Almost 20 min",5,2,886660,48,14.7776666666667,8,1,388,170
418,"A150MDVC0C92OT:3K3R2QNK8CB4FQ8Z839KLNMBW72U9H",1484511339552,18,2888,388,359,"Some",0,"english","Almost 20 min",5,2,886660,48,14.7776666666667,8,1,388,359
419,"A150MDVC0C92OT:3K3R2QNK8CB4FQ8Z839KLNMBW72U9H",1484511340907,19,1342,395,388,"Some",0,"english","Almost 20 min",5,2,886660,48,14.7776666666667,8,1,395,388
420,"A150MDVC0C92OT:3K3R2QNK8CB4FQ8Z839KLNMBW72U9H",1484511344679,20,3760,395,199,"Some",0,"english","Almost 20 min",5,2,886660,48,14.7776666666667,8,1,395,199
421,"A150MDVC0C92OT:3K3R2QNK8CB4FQ8Z839KLNMBW72U9H",1484511346600,21,1906,395,345,"Some",1,"english","Almost 20 min",5,2,886660,48,14.7776666666667,8,1,395,345
422,"A150MDVC0C92OT:3K3R2QNK8CB4FQ8Z839KLNMBW72U9H",1484511350217,22,3603,395,335,"Some",1,"english","Almost 20 min",5,2,886660,48,14.7776666666667,8,1,395,335
423,"A150MDVC0C92OT:3K3R2QNK8CB4FQ8Z839KLNMBW72U9H",1484511351806,23,1579,417,395,"Some",1,"english","Almost 20 min",5,2,886660,48,14.7776666666667,8,1,417,395
424,"A150MDVC0C92OT:3K3R2QNK8CB4FQ8Z839KLNMBW72U9H",1484511360024,24,8205,426,417,"Some",1,"english","Almost 20 min",5,2,886660,48,14.7776666666667,8,1,426,417
425,"A150MDVC0C92OT:3K3R2QNK8CB4FQ8Z839KLNMBW72U9H",1484511363154,25,3114,426,341,"Some",1,"english","Almost 20 min",5,2,886660,48,14.7776666666667,8,1,426,341
426,"A150MDVC0C92OT:3K3R2QNK8CB4FQ8Z839KLNMBW72U9H",1484511367962,26,4791,426,419,"Some",1,"english","Almost 20 min",5,2,886660,48,14.7776666666667,8,1,426,419
427,"A150MDVC0C92OT:3K3R2QNK8CB4FQ8Z839KLNMBW72U9H",1484511375171,27,7186,426,90,"Some",0,"english","Almost 20 min",5,2,886660,48,14.7776666666667,8,1,426,90
428,"A150MDVC0C92OT:3K3R2QNK8CB4FQ8Z839KLNMBW72U9H",1484511377050,28,1867,426,419,"Some",0,"english","Almost 20 min",5,2,886660,48,14.7776666666667,8,1,426,419
429,"A150MDVC0C92OT:3K3R2QNK8CB4FQ8Z839KLNMBW72U9H",1484511380944,29,3874,430,426,"Some",0,"english","Almost 20 min",5,2,886660,48,14.7776666666667,8,1,430,426
430,"A150MDVC0C92OT:3K3R2QNK8CB4FQ8Z839KLNMBW72U9H",1484511388674,30,7718,430,12,"Some",0,"english","Almost 20 min",5,2,886660,48,14.7776666666667,8,1,430,12
431,"A150MDVC0C92OT:3K3R2QNK8CB4FQ8Z839KLNMBW72U9H",1484511392899,31,4202,430,418,"Some",0,"english","Almost 20 min",5,2,886660,48,14.7776666666667,8,1,430,418
432,"A150MDVC0C92OT:3K3R2QNK8CB4FQ8Z839KLNMBW72U9H",1484511396565,32,3655,430,10,"Some",1,"english","Almost 20 min",5,2,886660,48,14.7776666666667,8,1,430,10
433,"A150MDVC0C92OT:3K3R2QNK8CB4FQ8Z839KLNMBW72U9H",1484511399064,33,2489,430,17,"Some",1,"english","Almost 20 min",5,2,886660,48,14.7776666666667,8,1,430,17
434,"A150MDVC0C92OT:3K3R2QNK8CB4FQ8Z839KLNMBW72U9H",1484511406860,34,7772,430,21,"Some",0,"english","Almost 20 min",5,2,886660,48,14.7776666666667,8,1,430,21
435,"A150MDVC0C92OT:3K3R2QNK8CB4FQ8Z839KLNMBW72U9H",1484511409848,35,2976,430,421,"Some",1,"english","Almost 20 min",5,2,886660,48,14.7776666666667,8,1,430,421
436,"A150MDVC0C92OT:3K3R2QNK8CB4FQ8Z839KLNMBW72U9H",1484511417407,36,7534,394,430,"Some",0,"english","Almost 20 min",5,2,886660,48,14.7776666666667,8,0,430,394
437,"A150MDVC0C92OT:3K3R2QNK8CB4FQ8Z839KLNMBW72U9H",1484511422512,37,5091,394,410,"Some",1,"english","Almost 20 min",5,2,886660,48,14.7776666666667,8,0,410,394
438,"A150MDVC0C92OT:3K3R2QNK8CB4FQ8Z839KLNMBW72U9H",1484511429384,38,6861,365,394,"Some",0,"english","Almost 20 min",5,2,886660,48,14.7776666666667,8,0,394,365
439,"A150MDVC0C92OT:3K3R2QNK8CB4FQ8Z839KLNMBW72U9H",1484511432531,39,3135,365,373,"Some",0,"english","Almost 20 min",5,2,886660,48,14.7776666666667,8,0,373,365
440,"A150MDVC0C92OT:3K3R2QNK8CB4FQ8Z839KLNMBW72U9H",1484511439814,40,7269,16,365,"Some",0,"english","Almost 20 min",5,2,886660,48,14.7776666666667,8,0,365,16
441,"A150MDVC0C92OT:3K3R2QNK8CB4FQ8Z839KLNMBW72U9H",1484511445776,41,5946,5,16,"Some",1,"english","Almost 20 min",5,2,886660,48,14.7776666666667,8,0,16,5
442,"A150MDVC0C92OT:3K3R2QNK8CB4FQ8Z839KLNMBW72U9H",1484511449759,42,3969,5,421,"Some",0,"english","Almost 20 min",5,2,886660,48,14.7776666666667,8,0,421,5
443,"A150MDVC0C92OT:3K3R2QNK8CB4FQ8Z839KLNMBW72U9H",1484511456049,43,6281,5,428,"Some",1,"english","Almost 20 min",5,2,886660,48,14.7776666666667,8,0,428,5
444,"A150MDVC0C92OT:3K3R2QNK8CB4FQ8Z839KLNMBW72U9H",1484511459894,44,3835,5,389,"Some",1,"english","Almost 20 min",5,2,886660,48,14.7776666666667,8,0,389,5
445,"A150MDVC0C92OT:3K3R2QNK8CB4FQ8Z839KLNMBW72U9H",1484511465077,45,5174,5,415,"Some",0,"english","Almost 20 min",5,2,886660,48,14.7776666666667,8,0,415,5
446,"A150MDVC0C92OT:3K3R2QNK8CB4FQ8Z839KLNMBW72U9H",1484511470191,46,5101,5,31,"Some",1,"english","Almost 20 min",5,2,886660,48,14.7776666666667,8,0,31,5
447,"A150MDVC0C92OT:3K3R2QNK8CB4FQ8Z839KLNMBW72U9H",1484511475572,47,5371,5,414,"Some",1,"english","Almost 20 min",5,2,886660,48,14.7776666666667,8,0,414,5
448,"A150MDVC0C92OT:3K3R2QNK8CB4FQ8Z839KLNMBW72U9H",1484511478511,48,2924,5,411,"Some",1,"english","Almost 20 min",5,2,886660,48,14.7776666666667,8,0,411,5
449,"A150MDVC0C92OT:3K3R2QNK8CB4FQ8Z839KLNMBW72U9H",1484511482005,49,3474,5,328,"Some",0,"english","Almost 20 min",5,2,886660,48,14.7776666666667,8,0,328,5
450,"A150MDVC0C92OT:3K3R2QNK8CB4FQ8Z839KLNMBW72U9H",1484511485747,50,3726,5,382,"Some",1,"english","Almost 20 min",5,2,886660,48,14.7776666666667,8,0,382,5
461,"A150MDVC0C92OT:3K3R2QNK8CB4FQ8Z839KLNMBW72U9H",1484511560395,11,4820,20,39,"Few",1,"english","Almost 20 min",5,2,886660,48,14.7776666666667,3,0,39,20
462,"A150MDVC0C92OT:3K3R2QNK8CB4FQ8Z839KLNMBW72U9H",1484511565456,12,5042,20,262,"Few",0,"english","Almost 20 min",5,2,886660,48,14.7776666666667,3,0,262,20
463,"A150MDVC0C92OT:3K3R2QNK8CB4FQ8Z839KLNMBW72U9H",1484511567464,13,1994,20,29,"Few",1,"english","Almost 20 min",5,2,886660,48,14.7776666666667,3,0,29,20
464,"A150MDVC0C92OT:3K3R2QNK8CB4FQ8Z839KLNMBW72U9H",1484511570533,14,3052,4,20,"Few",0,"english","Almost 20 min",5,2,886660,48,14.7776666666667,3,0,20,4
465,"A150MDVC0C92OT:3K3R2QNK8CB4FQ8Z839KLNMBW72U9H",1484511575722,15,5176,4,430,"Few",0,"english","Almost 20 min",5,2,886660,48,14.7776666666667,3,0,430,4
466,"A150MDVC0C92OT:3K3R2QNK8CB4FQ8Z839KLNMBW72U9H",1484511582090,16,6355,4,8,"Few",0,"english","Almost 20 min",5,2,886660,48,14.7776666666667,3,0,8,4
467,"A150MDVC0C92OT:3K3R2QNK8CB4FQ8Z839KLNMBW72U9H",1484511586042,17,3937,4,343,"Few",0,"english","Almost 20 min",5,2,886660,48,14.7776666666667,3,0,343,4
468,"A150MDVC0C92OT:3K3R2QNK8CB4FQ8Z839KLNMBW72U9H",1484511588948,18,2892,16,4,"Few",0,"english","Almost 20 min",5,2,886660,48,14.7776666666667,3,1,16,4
469,"A150MDVC0C92OT:3K3R2QNK8CB4FQ8Z839KLNMBW72U9H",1484511593997,19,5034,4,16,"Few",1,"english","Almost 20 min",5,2,886660,48,14.7776666666667,3,0,16,4
470,"A150MDVC0C92OT:3K3R2QNK8CB4FQ8Z839KLNMBW72U9H",1484511598038,20,4016,4,127,"Few",1,"english","Almost 20 min",5,2,886660,48,14.7776666666667,3,0,127,4
471,"A150MDVC0C92OT:3K3R2QNK8CB4FQ8Z839KLNMBW72U9H",1484511604371,21,6319,4,421,"Few",1,"english","Almost 20 min",5,2,886660,48,14.7776666666667,3,0,421,4
472,"A150MDVC0C92OT:3K3R2QNK8CB4FQ8Z839KLNMBW72U9H",1484511608119,22,3727,4,165,"Few",1,"english","Almost 20 min",5,2,886660,48,14.7776666666667,3,0,165,4
473,"A150MDVC0C92OT:3K3R2QNK8CB4FQ8Z839KLNMBW72U9H",1484511611962,23,3822,13,4,"Few",1,"english","Almost 20 min",5,2,886660,48,14.7776666666667,3,1,13,4
474,"A150MDVC0C92OT:3K3R2QNK8CB4FQ8Z839KLNMBW72U9H",1484511614833,24,2855,16,13,"Few",1,"english","Almost 20 min",5,2,886660,48,14.7776666666667,3,1,16,13
475,"A150MDVC0C92OT:3K3R2QNK8CB4FQ8Z839KLNMBW72U9H",1484511618450,25,3599,16,120,"Few",1,"english","Almost 20 min",5,2,886660,48,14.7776666666667,3,0,120,16
476,"A150MDVC0C92OT:3K3R2QNK8CB4FQ8Z839KLNMBW72U9H",1484511624216,26,5748,16,45,"Few",1,"english","Almost 20 min",5,2,886660,48,14.7776666666667,3,0,45,16
477,"A150MDVC0C92OT:3K3R2QNK8CB4FQ8Z839KLNMBW72U9H",1484511628013,27,3783,16,125,"Few",1,"english","Almost 20 min",5,2,886660,48,14.7776666666667,3,0,125,16
478,"A150MDVC0C92OT:3K3R2QNK8CB4FQ8Z839KLNMBW72U9H",1484511631237,28,3212,16,45,"Few",0,"english","Almost 20 min",5,2,886660,48,14.7776666666667,3,0,45,16
479,"A150MDVC0C92OT:3K3R2QNK8CB4FQ8Z839KLNMBW72U9H",1484511638572,29,7318,16,12,"Few",1,"english","Almost 20 min",5,2,886660,48,14.7776666666667,3,1,16,12
480,"A150MDVC0C92OT:3K3R2QNK8CB4FQ8Z839KLNMBW72U9H",1484511640428,30,1842,16,383,"Few",1,"english","Almost 20 min",5,2,886660,48,14.7776666666667,3,0,383,16
481,"A150MDVC0C92OT:3K3R2QNK8CB4FQ8Z839KLNMBW72U9H",1484511643693,31,3254,16,39,"Few",0,"english","Almost 20 min",5,2,886660,48,14.7776666666667,3,0,39,16
482,"A150MDVC0C92OT:3K3R2QNK8CB4FQ8Z839KLNMBW72U9H",1484511646634,32,2931,16,30,"Few",0,"english","Almost 20 min",5,2,886660,48,14.7776666666667,3,0,30,16
483,"A150MDVC0C92OT:3K3R2QNK8CB4FQ8Z839KLNMBW72U9H",1484511651119,33,4474,16,16,"Few",0,"english","Almost 20 min",5,2,886660,48,14.7776666666667,3,0,16,16
484,"A150MDVC0C92OT:3K3R2QNK8CB4FQ8Z839KLNMBW72U9H",1484511655331,34,4198,16,44,"Few",1,"english","Almost 20 min",5,2,886660,48,14.7776666666667,3,0,44,16
485,"A150MDVC0C92OT:3K3R2QNK8CB4FQ8Z839KLNMBW72U9H",1484511658742,35,3396,16,38,"Few",0,"english","Almost 20 min",5,2,886660,48,14.7776666666667,3,0,38,16
486,"A150MDVC0C92OT:3K3R2QNK8CB4FQ8Z839KLNMBW72U9H",1484511660518,36,1765,16,44,"Few",1,"english","Almost 20 min",5,2,886660,48,14.7776666666667,3,0,44,16
487,"A150MDVC0C92OT:3K3R2QNK8CB4FQ8Z839KLNMBW72U9H",1484511663779,37,3249,16,45,"Few",0,"english","Almost 20 min",5,2,886660,48,14.7776666666667,3,0,45,16
488,"A150MDVC0C92OT:3K3R2QNK8CB4FQ8Z839KLNMBW72U9H",1484511665056,38,1268,34,16,"Few",0,"english","Almost 20 min",5,2,886660,48,14.7776666666667,3,1,34,16
489,"A150MDVC0C92OT:3K3R2QNK8CB4FQ8Z839KLNMBW72U9H",1484511671605,39,6539,42,34,"Few",1,"english","Almost 20 min",5,2,886660,48,14.7776666666667,3,1,42,34
490,"A150MDVC0C92OT:3K3R2QNK8CB4FQ8Z839KLNMBW72U9H",1484511677001,40,5380,42,61,"Few",1,"english","Almost 20 min",5,2,886660,48,14.7776666666667,3,0,61,42
491,"A150MDVC0C92OT:3K3R2QNK8CB4FQ8Z839KLNMBW72U9H",1484511680446,41,3423,42,156,"Few",0,"english","Almost 20 min",5,2,886660,48,14.7776666666667,3,0,156,42
492,"A150MDVC0C92OT:3K3R2QNK8CB4FQ8Z839KLNMBW72U9H",1484511684348,42,3882,42,347,"Few",1,"english","Almost 20 min",5,2,886660,48,14.7776666666667,3,0,347,42
493,"A150MDVC0C92OT:3K3R2QNK8CB4FQ8Z839KLNMBW72U9H",1484511687228,43,2863,42,191,"Few",1,"english","Almost 20 min",5,2,886660,48,14.7776666666667,3,0,191,42
494,"A150MDVC0C92OT:3K3R2QNK8CB4FQ8Z839KLNMBW72U9H",1484511690995,44,3745,42,308,"Few",1,"english","Almost 20 min",5,2,886660,48,14.7776666666667,3,0,308,42
495,"A150MDVC0C92OT:3K3R2QNK8CB4FQ8Z839KLNMBW72U9H",1484511694773,45,3762,42,98,"Few",1,"english","Almost 20 min",5,2,886660,48,14.7776666666667,3,0,98,42
496,"A150MDVC0C92OT:3K3R2QNK8CB4FQ8Z839KLNMBW72U9H",1484511696248,46,1461,178,42,"Few",1,"english","Almost 20 min",5,2,886660,48,14.7776666666667,3,1,178,42
497,"A150MDVC0C92OT:3K3R2QNK8CB4FQ8Z839KLNMBW72U9H",1484511699979,47,3718,178,304,"Few",0,"english","Almost 20 min",5,2,886660,48,14.7776666666667,3,0,304,178
498,"A150MDVC0C92OT:3K3R2QNK8CB4FQ8Z839KLNMBW72U9H",1484511702883,48,2890,178,177,"Few",0,"english","Almost 20 min",5,2,886660,48,14.7776666666667,3,1,178,177
499,"A150MDVC0C92OT:3K3R2QNK8CB4FQ8Z839KLNMBW72U9H",1484511710245,49,7347,178,197,"Few",0,"english","Almost 20 min",5,2,886660,48,14.7776666666667,3,0,197,178
500,"A150MDVC0C92OT:3K3R2QNK8CB4FQ8Z839KLNMBW72U9H",1484511712819,50,2562,178,338,"Few",0,"english","Almost 20 min",5,2,886660,48,14.7776666666667,3,0,338,178
511,"A150MDVC0C92OT:3K3R2QNK8CB4FQ8Z839KLNMBW72U9H",1484511764759,11,3787,287,258,"Most",0,"english","Almost 20 min",5,2,886660,48,14.7776666666667,7,1,287,258
512,"A150MDVC0C92OT:3K3R2QNK8CB4FQ8Z839KLNMBW72U9H",1484511767282,12,2510,287,276,"Most",0,"english","Almost 20 min",5,2,886660,48,14.7776666666667,7,1,287,276
513,"A150MDVC0C92OT:3K3R2QNK8CB4FQ8Z839KLNMBW72U9H",1484511769975,13,2669,312,287,"Most",1,"english","Almost 20 min",5,2,886660,48,14.7776666666667,7,1,312,287
514,"A150MDVC0C92OT:3K3R2QNK8CB4FQ8Z839KLNMBW72U9H",1484511772393,14,2403,312,307,"Most",0,"english","Almost 20 min",5,2,886660,48,14.7776666666667,7,1,312,307
515,"A150MDVC0C92OT:3K3R2QNK8CB4FQ8Z839KLNMBW72U9H",1484511777691,15,5279,312,188,"Most",1,"english","Almost 20 min",5,2,886660,48,14.7776666666667,7,1,312,188
516,"A150MDVC0C92OT:3K3R2QNK8CB4FQ8Z839KLNMBW72U9H",1484511781652,16,3939,335,312,"Most",0,"english","Almost 20 min",5,2,886660,48,14.7776666666667,7,1,335,312
517,"A150MDVC0C92OT:3K3R2QNK8CB4FQ8Z839KLNMBW72U9H",1484511785239,17,3568,61,335,"Most",0,"english","Almost 20 min",5,2,886660,48,14.7776666666667,7,0,335,61
518,"A150MDVC0C92OT:3K3R2QNK8CB4FQ8Z839KLNMBW72U9H",1484511791724,18,6474,61,49,"Most",1,"english","Almost 20 min",5,2,886660,48,14.7776666666667,7,1,61,49
519,"A150MDVC0C92OT:3K3R2QNK8CB4FQ8Z839KLNMBW72U9H",1484511795300,19,3560,61,32,"Most",1,"english","Almost 20 min",5,2,886660,48,14.7776666666667,7,1,61,32
520,"A150MDVC0C92OT:3K3R2QNK8CB4FQ8Z839KLNMBW72U9H",1484511800375,20,5065,61,35,"Most",0,"english","Almost 20 min",5,2,886660,48,14.7776666666667,7,1,61,35
521,"A150MDVC0C92OT:3K3R2QNK8CB4FQ8Z839KLNMBW72U9H",1484511806622,21,6238,61,53,"Most",1,"english","Almost 20 min",5,2,886660,48,14.7776666666667,7,1,61,53
522,"A150MDVC0C92OT:3K3R2QNK8CB4FQ8Z839KLNMBW72U9H",1484511808620,22,1986,61,4,"Most",1,"english","Almost 20 min",5,2,886660,48,14.7776666666667,7,1,61,4
523,"A150MDVC0C92OT:3K3R2QNK8CB4FQ8Z839KLNMBW72U9H",1484511813919,23,5281,61,91,"Most",0,"english","Almost 20 min",5,2,886660,48,14.7776666666667,7,0,91,61
524,"A150MDVC0C92OT:3K3R2QNK8CB4FQ8Z839KLNMBW72U9H",1484511819147,24,5205,61,38,"Most",0,"english","Almost 20 min",5,2,886660,48,14.7776666666667,7,1,61,38
525,"A150MDVC0C92OT:3K3R2QNK8CB4FQ8Z839KLNMBW72U9H",1484511822875,25,3705,286,61,"Most",0,"english","Almost 20 min",5,2,886660,48,14.7776666666667,7,1,286,61
526,"A150MDVC0C92OT:3K3R2QNK8CB4FQ8Z839KLNMBW72U9H",1484511827538,26,4646,286,32,"Most",0,"english","Almost 20 min",5,2,886660,48,14.7776666666667,7,1,286,32
527,"A150MDVC0C92OT:3K3R2QNK8CB4FQ8Z839KLNMBW72U9H",1484511831879,27,4327,285,286,"Most",1,"english","Almost 20 min",5,2,886660,48,14.7776666666667,7,0,286,285
528,"A150MDVC0C92OT:3K3R2QNK8CB4FQ8Z839KLNMBW72U9H",1484511836328,28,4435,285,258,"Most",1,"english","Almost 20 min",5,2,886660,48,14.7776666666667,7,1,285,258
529,"A150MDVC0C92OT:3K3R2QNK8CB4FQ8Z839KLNMBW72U9H",1484511839819,29,3479,268,285,"Most",1,"english","Almost 20 min",5,2,886660,48,14.7776666666667,7,0,285,268
530,"A150MDVC0C92OT:3K3R2QNK8CB4FQ8Z839KLNMBW72U9H",1484511844099,30,4257,268,232,"Most",1,"english","Almost 20 min",5,2,886660,48,14.7776666666667,7,1,268,232
531,"A150MDVC0C92OT:3K3R2QNK8CB4FQ8Z839KLNMBW72U9H",1484511848172,31,4058,268,282,"Most",1,"english","Almost 20 min",5,2,886660,48,14.7776666666667,7,0,282,268
532,"A150MDVC0C92OT:3K3R2QNK8CB4FQ8Z839KLNMBW72U9H",1484511852528,32,4344,256,268,"Most",0,"english","Almost 20 min",5,2,886660,48,14.7776666666667,7,0,268,256
533,"A150MDVC0C92OT:3K3R2QNK8CB4FQ8Z839KLNMBW72U9H",1484511857008,33,4465,285,256,"Most",0,"english","Almost 20 min",5,2,886660,48,14.7776666666667,7,1,285,256
534,"A150MDVC0C92OT:3K3R2QNK8CB4FQ8Z839KLNMBW72U9H",1484511860070,34,3049,285,72,"Most",0,"english","Almost 20 min",5,2,886660,48,14.7776666666667,7,1,285,72
535,"A150MDVC0C92OT:3K3R2QNK8CB4FQ8Z839KLNMBW72U9H",1484511863512,35,3427,285,104,"Most",1,"english","Almost 20 min",5,2,886660,48,14.7776666666667,7,1,285,104
536,"A150MDVC0C92OT:3K3R2QNK8CB4FQ8Z839KLNMBW72U9H",1484511867212,36,3686,285,269,"Most",1,"english","Almost 20 min",5,2,886660,48,14.7776666666667,7,1,285,269
537,"A150MDVC0C92OT:3K3R2QNK8CB4FQ8Z839KLNMBW72U9H",1484511869733,37,2510,285,120,"Most",0,"english","Almost 20 min",5,2,886660,48,14.7776666666667,7,1,285,120
538,"A150MDVC0C92OT:3K3R2QNK8CB4FQ8Z839KLNMBW72U9H",1484511872280,38,2535,312,285,"Most",1,"english","Almost 20 min",5,2,886660,48,14.7776666666667,7,1,312,285
539,"A150MDVC0C92OT:3K3R2QNK8CB4FQ8Z839KLNMBW72U9H",1484511877318,39,5028,419,312,"Most",0,"english","Almost 20 min",5,2,886660,48,14.7776666666667,7,1,419,312
540,"A150MDVC0C92OT:3K3R2QNK8CB4FQ8Z839KLNMBW72U9H",1484511880471,40,3141,419,398,"Most",0,"english","Almost 20 min",5,2,886660,48,14.7776666666667,7,1,419,398
541,"A150MDVC0C92OT:3K3R2QNK8CB4FQ8Z839KLNMBW72U9H",1484511885162,41,4667,427,419,"Most",0,"english","Almost 20 min",5,2,886660,48,14.7776666666667,7,1,427,419
542,"A150MDVC0C92OT:3K3R2QNK8CB4FQ8Z839KLNMBW72U9H",1484511887938,42,2760,427,24,"Most",0,"english","Almost 20 min",5,2,886660,48,14.7776666666667,7,1,427,24
543,"A150MDVC0C92OT:3K3R2QNK8CB4FQ8Z839KLNMBW72U9H",1484511893159,43,5208,427,7,"Most",1,"english","Almost 20 min",5,2,886660,48,14.7776666666667,7,1,427,7
544,"A150MDVC0C92OT:3K3R2QNK8CB4FQ8Z839KLNMBW72U9H",1484511895888,44,2712,427,41,"Most",0,"english","Almost 20 min",5,2,886660,48,14.7776666666667,7,1,427,41
545,"A150MDVC0C92OT:3K3R2QNK8CB4FQ8Z839KLNMBW72U9H",1484511899710,45,3798,427,398,"Most",1,"english","Almost 20 min",5,2,886660,48,14.7776666666667,7,1,427,398
546,"A150MDVC0C92OT:3K3R2QNK8CB4FQ8Z839KLNMBW72U9H",1484511904805,46,5082,427,365,"Most",1,"english","Almost 20 min",5,2,886660,48,14.7776666666667,7,1,427,365
547,"A150MDVC0C92OT:3K3R2QNK8CB4FQ8Z839KLNMBW72U9H",1484511908601,47,3778,427,428,"Most",1,"english","Almost 20 min",5,2,886660,48,14.7776666666667,7,0,428,427
548,"A150MDVC0C92OT:3K3R2QNK8CB4FQ8Z839KLNMBW72U9H",1484511909839,48,1227,430,427,"Most",1,"english","Almost 20 min",5,2,886660,48,14.7776666666667,7,1,430,427
549,"A150MDVC0C92OT:3K3R2QNK8CB4FQ8Z839KLNMBW72U9H",1484511911587,49,1732,430,257,"Most",0,"english","Almost 20 min",5,2,886660,48,14.7776666666667,7,1,430,257
550,"A150MDVC0C92OT:3K3R2QNK8CB4FQ8Z839KLNMBW72U9H",1484511915053,50,3437,430,421,"Most",1,"english","Almost 20 min",5,2,886660,48,14.7776666666667,7,1,430,421
561,"A150MDVC0C92OT:3K3R2QNK8CB4FQ8Z839KLNMBW72U9H",1484511971191,11,4856,287,245,"Half",0,"english","Almost 20 min",5,2,886660,48,14.7776666666667,4,1,287,245
562,"A150MDVC0C92OT:3K3R2QNK8CB4FQ8Z839KLNMBW72U9H",1484511976285,12,5078,287,316,"Half",1,"english","Almost 20 min",5,2,886660,48,14.7776666666667,4,0,316,287
563,"A150MDVC0C92OT:3K3R2QNK8CB4FQ8Z839KLNMBW72U9H",1484511981397,13,5100,287,292,"Half",1,"english","Almost 20 min",5,2,886660,48,14.7776666666667,4,0,292,287
564,"A150MDVC0C92OT:3K3R2QNK8CB4FQ8Z839KLNMBW72U9H",1484511984003,14,2593,287,408,"Half",1,"english","Almost 20 min",5,2,886660,48,14.7776666666667,4,0,408,287
565,"A150MDVC0C92OT:3K3R2QNK8CB4FQ8Z839KLNMBW72U9H",1484511988351,15,4322,287,160,"Half",1,"english","Almost 20 min",5,2,886660,48,14.7776666666667,4,1,287,160
566,"A150MDVC0C92OT:3K3R2QNK8CB4FQ8Z839KLNMBW72U9H",1484511991549,16,3180,287,229,"Half",1,"english","Almost 20 min",5,2,886660,48,14.7776666666667,4,1,287,229
567,"A150MDVC0C92OT:3K3R2QNK8CB4FQ8Z839KLNMBW72U9H",1484511994608,17,3049,287,313,"Half",1,"english","Almost 20 min",5,2,886660,48,14.7776666666667,4,0,313,287
568,"A150MDVC0C92OT:3K3R2QNK8CB4FQ8Z839KLNMBW72U9H",1484512023754,18,29131,270,287,"Half",0,"english","Almost 20 min",5,2,886660,48,14.7776666666667,4,0,287,270
569,"A150MDVC0C92OT:3K3R2QNK8CB4FQ8Z839KLNMBW72U9H",1484512028628,19,4857,270,207,"Half",1,"english","Almost 20 min",5,2,886660,48,14.7776666666667,4,1,270,207
570,"A150MDVC0C92OT:3K3R2QNK8CB4FQ8Z839KLNMBW72U9H",1484512033806,20,5163,270,299,"Half",1,"english","Almost 20 min",5,2,886660,48,14.7776666666667,4,0,299,270
571,"A150MDVC0C92OT:3K3R2QNK8CB4FQ8Z839KLNMBW72U9H",1484512036380,21,2558,270,278,"Half",1,"english","Almost 20 min",5,2,886660,48,14.7776666666667,4,0,278,270
572,"A150MDVC0C92OT:3K3R2QNK8CB4FQ8Z839KLNMBW72U9H",1484512042129,22,5728,296,270,"Half",1,"english","Almost 20 min",5,2,886660,48,14.7776666666667,4,1,296,270
573,"A150MDVC0C92OT:3K3R2QNK8CB4FQ8Z839KLNMBW72U9H",1484512047402,23,5258,296,313,"Half",1,"english","Almost 20 min",5,2,886660,48,14.7776666666667,4,0,313,296
574,"A150MDVC0C92OT:3K3R2QNK8CB4FQ8Z839KLNMBW72U9H",1484512050364,24,2938,296,430,"Half",0,"english","Almost 20 min",5,2,886660,48,14.7776666666667,4,0,430,296
575,"A150MDVC0C92OT:3K3R2QNK8CB4FQ8Z839KLNMBW72U9H",1484512055480,25,5102,307,296,"Half",0,"english","Almost 20 min",5,2,886660,48,14.7776666666667,4,1,307,296
576,"A150MDVC0C92OT:3K3R2QNK8CB4FQ8Z839KLNMBW72U9H",1484512060597,26,5104,277,307,"Half",0,"english","Almost 20 min",5,2,886660,48,14.7776666666667,4,0,307,277
577,"A150MDVC0C92OT:3K3R2QNK8CB4FQ8Z839KLNMBW72U9H",1484512065773,27,5159,277,60,"Half",1,"english","Almost 20 min",5,2,886660,48,14.7776666666667,4,1,277,60
578,"A150MDVC0C92OT:3K3R2QNK8CB4FQ8Z839KLNMBW72U9H",1484512070912,28,5126,277,259,"Half",1,"english","Almost 20 min",5,2,886660,48,14.7776666666667,4,1,277,259
579,"A150MDVC0C92OT:3K3R2QNK8CB4FQ8Z839KLNMBW72U9H",1484512073542,29,2615,277,198,"Half",0,"english","Almost 20 min",5,2,886660,48,14.7776666666667,4,1,277,198
580,"A150MDVC0C92OT:3K3R2QNK8CB4FQ8Z839KLNMBW72U9H",1484512083051,30,9499,277,351,"Half",1,"english","Almost 20 min",5,2,886660,48,14.7776666666667,4,0,351,277
581,"A150MDVC0C92OT:3K3R2QNK8CB4FQ8Z839KLNMBW72U9H",1484512093056,31,9995,277,297,"Half",0,"english","Almost 20 min",5,2,886660,48,14.7776666666667,4,0,297,277
582,"A150MDVC0C92OT:3K3R2QNK8CB4FQ8Z839KLNMBW72U9H",1484512098022,32,4955,294,277,"Half",0,"english","Almost 20 min",5,2,886660,48,14.7776666666667,4,1,294,277
583,"A150MDVC0C92OT:3K3R2QNK8CB4FQ8Z839KLNMBW72U9H",1484512100730,33,2697,294,307,"Half",0,"english","Almost 20 min",5,2,886660,48,14.7776666666667,4,0,307,294
584,"A150MDVC0C92OT:3K3R2QNK8CB4FQ8Z839KLNMBW72U9H",1484512107952,34,7206,294,299,"Half",0,"english","Almost 20 min",5,2,886660,48,14.7776666666667,4,0,299,294
585,"A150MDVC0C92OT:3K3R2QNK8CB4FQ8Z839KLNMBW72U9H",1484512110176,35,2214,294,317,"Half",1,"english","Almost 20 min",5,2,886660,48,14.7776666666667,4,0,317,294
586,"A150MDVC0C92OT:3K3R2QNK8CB4FQ8Z839KLNMBW72U9H",1484512116263,36,6072,294,320,"Half",1,"english","Almost 20 min",5,2,886660,48,14.7776666666667,4,0,320,294
587,"A150MDVC0C92OT:3K3R2QNK8CB4FQ8Z839KLNMBW72U9H",1484512119589,37,3313,294,99,"Half",1,"english","Almost 20 min",5,2,886660,48,14.7776666666667,4,1,294,99
588,"A150MDVC0C92OT:3K3R2QNK8CB4FQ8Z839KLNMBW72U9H",1484512123006,38,3404,288,294,"Half",1,"english","Almost 20 min",5,2,886660,48,14.7776666666667,4,0,294,288
589,"A150MDVC0C92OT:3K3R2QNK8CB4FQ8Z839KLNMBW72U9H",1484512125600,39,2584,311,288,"Half",1,"english","Almost 20 min",5,2,886660,48,14.7776666666667,4,1,311,288
590,"A150MDVC0C92OT:3K3R2QNK8CB4FQ8Z839KLNMBW72U9H",1484512127961,40,2344,272,311,"Half",1,"english","Almost 20 min",5,2,886660,48,14.7776666666667,4,0,311,272
591,"A150MDVC0C92OT:3K3R2QNK8CB4FQ8Z839KLNMBW72U9H",1484512132940,41,4969,272,386,"Half",0,"english","Almost 20 min",5,2,886660,48,14.7776666666667,4,0,386,272
592,"A150MDVC0C92OT:3K3R2QNK8CB4FQ8Z839KLNMBW72U9H",1484512135761,42,2811,272,253,"Half",0,"english","Almost 20 min",5,2,886660,48,14.7776666666667,4,1,272,253
593,"A150MDVC0C92OT:3K3R2QNK8CB4FQ8Z839KLNMBW72U9H",1484512139304,43,3530,272,344,"Half",0,"english","Almost 20 min",5,2,886660,48,14.7776666666667,4,0,344,272
594,"A150MDVC0C92OT:3K3R2QNK8CB4FQ8Z839KLNMBW72U9H",1484512144000,44,4683,284,272,"Half",0,"english","Almost 20 min",5,2,886660,48,14.7776666666667,4,1,284,272
595,"A150MDVC0C92OT:3K3R2QNK8CB4FQ8Z839KLNMBW72U9H",1484512145785,45,1775,284,384,"Half",0,"english","Almost 20 min",5,2,886660,48,14.7776666666667,4,0,384,284
596,"A150MDVC0C92OT:3K3R2QNK8CB4FQ8Z839KLNMBW72U9H",1484512150759,46,4958,308,284,"Half",0,"english","Almost 20 min",5,2,886660,48,14.7776666666667,4,1,308,284
597,"A150MDVC0C92OT:3K3R2QNK8CB4FQ8Z839KLNMBW72U9H",1484512153350,47,2570,336,308,"Half",0,"english","Almost 20 min",5,2,886660,48,14.7776666666667,4,1,336,308
598,"A150MDVC0C92OT:3K3R2QNK8CB4FQ8Z839KLNMBW72U9H",1484512158520,48,5155,336,67,"Half",0,"english","Almost 20 min",5,2,886660,48,14.7776666666667,4,1,336,67
599,"A150MDVC0C92OT:3K3R2QNK8CB4FQ8Z839KLNMBW72U9H",1484512163705,49,5172,336,357,"Half",1,"english","Almost 20 min",5,2,886660,48,14.7776666666667,4,0,357,336
600,"A150MDVC0C92OT:3K3R2QNK8CB4FQ8Z839KLNMBW72U9H",1484512166672,50,2951,353,336,"Half",0,"english","Almost 20 min",5,2,886660,48,14.7776666666667,4,1,353,336
611,"A15781PHGW377Y:38BQUHLA9X8O957W1Q1GR306EKLOMX",1484511548416,11,3222,420,397,"Many",0,"english","it only works in chrome so you should probably take the feedback you've probably heard a million times already and warn in the hit discription and body title wherevver you can. USE CHROME. 
I found a little biit of lag showing the 2nd image in a few cases, I didn't click too soon but you should probably try to not accept a click untill both images are fully loaded.
on the last set. less than half I took to refer to other image when there were only very few in one and clearly less than half in the other.",8,3,782934,49,13.0489,6,1,420,397
612,"A15781PHGW377Y:38BQUHLA9X8O957W1Q1GR306EKLOMX",1484511551791,12,3374,420,420,"Many",0,"english","it only works in chrome so you should probably take the feedback you've probably heard a million times already and warn in the hit discription and body title wherevver you can. USE CHROME. 
I found a little biit of lag showing the 2nd image in a few cases, I didn't click too soon but you should probably try to not accept a click untill both images are fully loaded.
on the last set. less than half I took to refer to other image when there were only very few in one and clearly less than half in the other.",8,3,782934,49,13.0489,6,0,420,420
613,"A15781PHGW377Y:38BQUHLA9X8O957W1Q1GR306EKLOMX",1484511554282,13,2491,420,5,"Many",0,"english","it only works in chrome so you should probably take the feedback you've probably heard a million times already and warn in the hit discription and body title wherevver you can. USE CHROME. 
I found a little biit of lag showing the 2nd image in a few cases, I didn't click too soon but you should probably try to not accept a click untill both images are fully loaded.
on the last set. less than half I took to refer to other image when there were only very few in one and clearly less than half in the other.",8,3,782934,49,13.0489,6,1,420,5
614,"A15781PHGW377Y:38BQUHLA9X8O957W1Q1GR306EKLOMX",1484511556980,14,2697,420,400,"Many",1,"english","it only works in chrome so you should probably take the feedback you've probably heard a million times already and warn in the hit discription and body title wherevver you can. USE CHROME. 
I found a little biit of lag showing the 2nd image in a few cases, I didn't click too soon but you should probably try to not accept a click untill both images are fully loaded.
on the last set. less than half I took to refer to other image when there were only very few in one and clearly less than half in the other.",8,3,782934,49,13.0489,6,1,420,400
615,"A15781PHGW377Y:38BQUHLA9X8O957W1Q1GR306EKLOMX",1484511562813,15,5832,420,402,"Many",1,"english","it only works in chrome so you should probably take the feedback you've probably heard a million times already and warn in the hit discription and body title wherevver you can. USE CHROME. 
I found a little biit of lag showing the 2nd image in a few cases, I didn't click too soon but you should probably try to not accept a click untill both images are fully loaded.
on the last set. less than half I took to refer to other image when there were only very few in one and clearly less than half in the other.",8,3,782934,49,13.0489,6,1,420,402
616,"A15781PHGW377Y:38BQUHLA9X8O957W1Q1GR306EKLOMX",1484511566162,16,3348,429,420,"Many",1,"english","it only works in chrome so you should probably take the feedback you've probably heard a million times already and warn in the hit discription and body title wherevver you can. USE CHROME. 
I found a little biit of lag showing the 2nd image in a few cases, I didn't click too soon but you should probably try to not accept a click untill both images are fully loaded.
on the last set. less than half I took to refer to other image when there were only very few in one and clearly less than half in the other.",8,3,782934,49,13.0489,6,1,429,420
617,"A15781PHGW377Y:38BQUHLA9X8O957W1Q1GR306EKLOMX",1484511569277,17,3114,429,409,"Many",0,"english","it only works in chrome so you should probably take the feedback you've probably heard a million times already and warn in the hit discription and body title wherevver you can. USE CHROME. 
I found a little biit of lag showing the 2nd image in a few cases, I didn't click too soon but you should probably try to not accept a click untill both images are fully loaded.
on the last set. less than half I took to refer to other image when there were only very few in one and clearly less than half in the other.",8,3,782934,49,13.0489,6,1,429,409
618,"A15781PHGW377Y:38BQUHLA9X8O957W1Q1GR306EKLOMX",1484511572158,18,2880,429,415,"Many",1,"english","it only works in chrome so you should probably take the feedback you've probably heard a million times already and warn in the hit discription and body title wherevver you can. USE CHROME. 
I found a little biit of lag showing the 2nd image in a few cases, I didn't click too soon but you should probably try to not accept a click untill both images are fully loaded.
on the last set. less than half I took to refer to other image when there were only very few in one and clearly less than half in the other.",8,3,782934,49,13.0489,6,1,429,415
619,"A15781PHGW377Y:38BQUHLA9X8O957W1Q1GR306EKLOMX",1484511577249,19,5091,429,418,"Many",1,"english","it only works in chrome so you should probably take the feedback you've probably heard a million times already and warn in the hit discription and body title wherevver you can. USE CHROME. 
I found a little biit of lag showing the 2nd image in a few cases, I didn't click too soon but you should probably try to not accept a click untill both images are fully loaded.
on the last set. less than half I took to refer to other image when there were only very few in one and clearly less than half in the other.",8,3,782934,49,13.0489,6,1,429,418
620,"A15781PHGW377Y:38BQUHLA9X8O957W1Q1GR306EKLOMX",1484511580013,20,2763,429,31,"Many",1,"english","it only works in chrome so you should probably take the feedback you've probably heard a million times already and warn in the hit discription and body title wherevver you can. USE CHROME. 
I found a little biit of lag showing the 2nd image in a few cases, I didn't click too soon but you should probably try to not accept a click untill both images are fully loaded.
on the last set. less than half I took to refer to other image when there were only very few in one and clearly less than half in the other.",8,3,782934,49,13.0489,6,1,429,31
621,"A15781PHGW377Y:38BQUHLA9X8O957W1Q1GR306EKLOMX",1484511583557,21,3543,429,407,"Many",0,"english","it only works in chrome so you should probably take the feedback you've probably heard a million times already and warn in the hit discription and body title wherevver you can. USE CHROME. 
I found a little biit of lag showing the 2nd image in a few cases, I didn't click too soon but you should probably try to not accept a click untill both images are fully loaded.
on the last set. less than half I took to refer to other image when there were only very few in one and clearly less than half in the other.",8,3,782934,49,13.0489,6,1,429,407
622,"A15781PHGW377Y:38BQUHLA9X8O957W1Q1GR306EKLOMX",1484511585684,22,2126,429,26,"Many",1,"english","it only works in chrome so you should probably take the feedback you've probably heard a million times already and warn in the hit discription and body title wherevver you can. USE CHROME. 
I found a little biit of lag showing the 2nd image in a few cases, I didn't click too soon but you should probably try to not accept a click untill both images are fully loaded.
on the last set. less than half I took to refer to other image when there were only very few in one and clearly less than half in the other.",8,3,782934,49,13.0489,6,1,429,26
623,"A15781PHGW377Y:38BQUHLA9X8O957W1Q1GR306EKLOMX",1484511587694,23,2009,429,248,"Many",0,"english","it only works in chrome so you should probably take the feedback you've probably heard a million times already and warn in the hit discription and body title wherevver you can. USE CHROME. 
I found a little biit of lag showing the 2nd image in a few cases, I didn't click too soon but you should probably try to not accept a click untill both images are fully loaded.
on the last set. less than half I took to refer to other image when there were only very few in one and clearly less than half in the other.",8,3,782934,49,13.0489,6,1,429,248
624,"A15781PHGW377Y:38BQUHLA9X8O957W1Q1GR306EKLOMX",1484511590653,24,2959,429,410,"Many",0,"english","it only works in chrome so you should probably take the feedback you've probably heard a million times already and warn in the hit discription and body title wherevver you can. USE CHROME. 
I found a little biit of lag showing the 2nd image in a few cases, I didn't click too soon but you should probably try to not accept a click untill both images are fully loaded.
on the last set. less than half I took to refer to other image when there were only very few in one and clearly less than half in the other.",8,3,782934,49,13.0489,6,1,429,410
625,"A15781PHGW377Y:38BQUHLA9X8O957W1Q1GR306EKLOMX",1484511593026,25,2372,429,9,"Many",1,"english","it only works in chrome so you should probably take the feedback you've probably heard a million times already and warn in the hit discription and body title wherevver you can. USE CHROME. 
I found a little biit of lag showing the 2nd image in a few cases, I didn't click too soon but you should probably try to not accept a click untill both images are fully loaded.
on the last set. less than half I took to refer to other image when there were only very few in one and clearly less than half in the other.",8,3,782934,49,13.0489,6,1,429,9
626,"A15781PHGW377Y:38BQUHLA9X8O957W1Q1GR306EKLOMX",1484511596090,26,3063,427,429,"Many",0,"english","it only works in chrome so you should probably take the feedback you've probably heard a million times already and warn in the hit discription and body title wherevver you can. USE CHROME. 
I found a little biit of lag showing the 2nd image in a few cases, I didn't click too soon but you should probably try to not accept a click untill both images are fully loaded.
on the last set. less than half I took to refer to other image when there were only very few in one and clearly less than half in the other.",8,3,782934,49,13.0489,6,0,429,427
627,"A15781PHGW377Y:38BQUHLA9X8O957W1Q1GR306EKLOMX",1484511598181,27,2090,427,17,"Many",0,"english","it only works in chrome so you should probably take the feedback you've probably heard a million times already and warn in the hit discription and body title wherevver you can. USE CHROME. 
I found a little biit of lag showing the 2nd image in a few cases, I didn't click too soon but you should probably try to not accept a click untill both images are fully loaded.
on the last set. less than half I took to refer to other image when there were only very few in one and clearly less than half in the other.",8,3,782934,49,13.0489,6,1,427,17
628,"A15781PHGW377Y:38BQUHLA9X8O957W1Q1GR306EKLOMX",1484511601202,28,3021,432,427,"Many",1,"english","it only works in chrome so you should probably take the feedback you've probably heard a million times already and warn in the hit discription and body title wherevver you can. USE CHROME. 
I found a little biit of lag showing the 2nd image in a few cases, I didn't click too soon but you should probably try to not accept a click untill both images are fully loaded.
on the last set. less than half I took to refer to other image when there were only very few in one and clearly less than half in the other.",8,3,782934,49,13.0489,6,1,432,427
629,"A15781PHGW377Y:38BQUHLA9X8O957W1Q1GR306EKLOMX",1484511604356,29,3153,432,367,"Many",0,"english","it only works in chrome so you should probably take the feedback you've probably heard a million times already and warn in the hit discription and body title wherevver you can. USE CHROME. 
I found a little biit of lag showing the 2nd image in a few cases, I didn't click too soon but you should probably try to not accept a click untill both images are fully loaded.
on the last set. less than half I took to refer to other image when there were only very few in one and clearly less than half in the other.",8,3,782934,49,13.0489,6,1,432,367
630,"A15781PHGW377Y:38BQUHLA9X8O957W1Q1GR306EKLOMX",1484511606795,30,2438,432,422,"Many",0,"english","it only works in chrome so you should probably take the feedback you've probably heard a million times already and warn in the hit discription and body title wherevver you can. USE CHROME. 
I found a little biit of lag showing the 2nd image in a few cases, I didn't click too soon but you should probably try to not accept a click untill both images are fully loaded.
on the last set. less than half I took to refer to other image when there were only very few in one and clearly less than half in the other.",8,3,782934,49,13.0489,6,1,432,422
631,"A15781PHGW377Y:38BQUHLA9X8O957W1Q1GR306EKLOMX",1484511608948,31,2153,432,21,"Many",0,"english","it only works in chrome so you should probably take the feedback you've probably heard a million times already and warn in the hit discription and body title wherevver you can. USE CHROME. 
I found a little biit of lag showing the 2nd image in a few cases, I didn't click too soon but you should probably try to not accept a click untill both images are fully loaded.
on the last set. less than half I took to refer to other image when there were only very few in one and clearly less than half in the other.",8,3,782934,49,13.0489,6,1,432,21
632,"A15781PHGW377Y:38BQUHLA9X8O957W1Q1GR306EKLOMX",1484511611232,32,2283,432,401,"Many",1,"english","it only works in chrome so you should probably take the feedback you've probably heard a million times already and warn in the hit discription and body title wherevver you can. USE CHROME. 
I found a little biit of lag showing the 2nd image in a few cases, I didn't click too soon but you should probably try to not accept a click untill both images are fully loaded.
on the last set. less than half I took to refer to other image when there were only very few in one and clearly less than half in the other.",8,3,782934,49,13.0489,6,1,432,401
633,"A15781PHGW377Y:38BQUHLA9X8O957W1Q1GR306EKLOMX",1484511613645,33,2413,432,413,"Many",1,"english","it only works in chrome so you should probably take the feedback you've probably heard a million times already and warn in the hit discription and body title wherevver you can. USE CHROME. 
I found a little biit of lag showing the 2nd image in a few cases, I didn't click too soon but you should probably try to not accept a click untill both images are fully loaded.
on the last set. less than half I took to refer to other image when there were only very few in one and clearly less than half in the other.",8,3,782934,49,13.0489,6,1,432,413
634,"A15781PHGW377Y:38BQUHLA9X8O957W1Q1GR306EKLOMX",1484511617683,34,4036,432,19,"Many",0,"english","it only works in chrome so you should probably take the feedback you've probably heard a million times already and warn in the hit discription and body title wherevver you can. USE CHROME. 
I found a little biit of lag showing the 2nd image in a few cases, I didn't click too soon but you should probably try to not accept a click untill both images are fully loaded.
on the last set. less than half I took to refer to other image when there were only very few in one and clearly less than half in the other.",8,3,782934,49,13.0489,6,1,432,19
635,"A15781PHGW377Y:38BQUHLA9X8O957W1Q1GR306EKLOMX",1484511620642,35,2958,432,244,"Many",1,"english","it only works in chrome so you should probably take the feedback you've probably heard a million times already and warn in the hit discription and body title wherevver you can. USE CHROME. 
I found a little biit of lag showing the 2nd image in a few cases, I didn't click too soon but you should probably try to not accept a click untill both images are fully loaded.
on the last set. less than half I took to refer to other image when there were only very few in one and clearly less than half in the other.",8,3,782934,49,13.0489,6,1,432,244
636,"A15781PHGW377Y:38BQUHLA9X8O957W1Q1GR306EKLOMX",1484511625694,36,5051,432,16,"Many",1,"english","it only works in chrome so you should probably take the feedback you've probably heard a million times already and warn in the hit discription and body title wherevver you can. USE CHROME. 
I found a little biit of lag showing the 2nd image in a few cases, I didn't click too soon but you should probably try to not accept a click untill both images are fully loaded.
on the last set. less than half I took to refer to other image when there were only very few in one and clearly less than half in the other.",8,3,782934,49,13.0489,6,1,432,16
637,"A15781PHGW377Y:38BQUHLA9X8O957W1Q1GR306EKLOMX",1484511629068,37,3374,432,8,"Many",1,"english","it only works in chrome so you should probably take the feedback you've probably heard a million times already and warn in the hit discription and body title wherevver you can. USE CHROME. 
I found a little biit of lag showing the 2nd image in a few cases, I didn't click too soon but you should probably try to not accept a click untill both images are fully loaded.
on the last set. less than half I took to refer to other image when there were only very few in one and clearly less than half in the other.",8,3,782934,49,13.0489,6,1,432,8
638,"A15781PHGW377Y:38BQUHLA9X8O957W1Q1GR306EKLOMX",1484511631976,38,2907,432,326,"Many",1,"english","it only works in chrome so you should probably take the feedback you've probably heard a million times already and warn in the hit discription and body title wherevver you can. USE CHROME. 
I found a little biit of lag showing the 2nd image in a few cases, I didn't click too soon but you should probably try to not accept a click untill both images are fully loaded.
on the last set. less than half I took to refer to other image when there were only very few in one and clearly less than half in the other.",8,3,782934,49,13.0489,6,1,432,326
639,"A15781PHGW377Y:38BQUHLA9X8O957W1Q1GR306EKLOMX",1484511635949,39,3972,432,430,"Many",0,"english","it only works in chrome so you should probably take the feedback you've probably heard a million times already and warn in the hit discription and body title wherevver you can. USE CHROME. 
I found a little biit of lag showing the 2nd image in a few cases, I didn't click too soon but you should probably try to not accept a click untill both images are fully loaded.
on the last set. less than half I took to refer to other image when there were only very few in one and clearly less than half in the other.",8,3,782934,49,13.0489,6,1,432,430
640,"A15781PHGW377Y:38BQUHLA9X8O957W1Q1GR306EKLOMX",1484511638037,40,2087,432,218,"Many",1,"english","it only works in chrome so you should probably take the feedback you've probably heard a million times already and warn in the hit discription and body title wherevver you can. USE CHROME. 
I found a little biit of lag showing the 2nd image in a few cases, I didn't click too soon but you should probably try to not accept a click untill both images are fully loaded.
on the last set. less than half I took to refer to other image when there were only very few in one and clearly less than half in the other.",8,3,782934,49,13.0489,6,1,432,218
641,"A15781PHGW377Y:38BQUHLA9X8O957W1Q1GR306EKLOMX",1484511641984,41,3946,432,44,"Many",1,"english","it only works in chrome so you should probably take the feedback you've probably heard a million times already and warn in the hit discription and body title wherevver you can. USE CHROME. 
I found a little biit of lag showing the 2nd image in a few cases, I didn't click too soon but you should probably try to not accept a click untill both images are fully loaded.
on the last set. less than half I took to refer to other image when there were only very few in one and clearly less than half in the other.",8,3,782934,49,13.0489,6,1,432,44
642,"A15781PHGW377Y:38BQUHLA9X8O957W1Q1GR306EKLOMX",1484511644228,42,2244,432,25,"Many",0,"english","it only works in chrome so you should probably take the feedback you've probably heard a million times already and warn in the hit discription and body title wherevver you can. USE CHROME. 
I found a little biit of lag showing the 2nd image in a few cases, I didn't click too soon but you should probably try to not accept a click untill both images are fully loaded.
on the last set. less than half I took to refer to other image when there were only very few in one and clearly less than half in the other.",8,3,782934,49,13.0489,6,1,432,25
643,"A15781PHGW377Y:38BQUHLA9X8O957W1Q1GR306EKLOMX",1484511646757,43,2528,432,245,"Many",1,"english","it only works in chrome so you should probably take the feedback you've probably heard a million times already and warn in the hit discription and body title wherevver you can. USE CHROME. 
I found a little biit of lag showing the 2nd image in a few cases, I didn't click too soon but you should probably try to not accept a click untill both images are fully loaded.
on the last set. less than half I took to refer to other image when there were only very few in one and clearly less than half in the other.",8,3,782934,49,13.0489,6,1,432,245
644,"A15781PHGW377Y:38BQUHLA9X8O957W1Q1GR306EKLOMX",1484511649418,44,2660,432,2,"Many",1,"english","it only works in chrome so you should probably take the feedback you've probably heard a million times already and warn in the hit discription and body title wherevver you can. USE CHROME. 
I found a little biit of lag showing the 2nd image in a few cases, I didn't click too soon but you should probably try to not accept a click untill both images are fully loaded.
on the last set. less than half I took to refer to other image when there were only very few in one and clearly less than half in the other.",8,3,782934,49,13.0489,6,1,432,2
645,"A15781PHGW377Y:38BQUHLA9X8O957W1Q1GR306EKLOMX",1484511651688,45,2269,432,26,"Many",1,"english","it only works in chrome so you should probably take the feedback you've probably heard a million times already and warn in the hit discription and body title wherevver you can. USE CHROME. 
I found a little biit of lag showing the 2nd image in a few cases, I didn't click too soon but you should probably try to not accept a click untill both images are fully loaded.
on the last set. less than half I took to refer to other image when there were only very few in one and clearly less than half in the other.",8,3,782934,49,13.0489,6,1,432,26
646,"A15781PHGW377Y:38BQUHLA9X8O957W1Q1GR306EKLOMX",1484511654712,46,3023,432,94,"Many",1,"english","it only works in chrome so you should probably take the feedback you've probably heard a million times already and warn in the hit discription and body title wherevver you can. USE CHROME. 
I found a little biit of lag showing the 2nd image in a few cases, I didn't click too soon but you should probably try to not accept a click untill both images are fully loaded.
