"X","id","itemTime","trial","RT","number_chosen","number_not_chosen","quantifier","clicked_left","language","comments","engagement","difficulty","time"
11,"A16KDMZ7CEDHNV:3PZDLQMM0UTXTC601395HUSQFGE2C4",1474877542225,11,3809,197,170,"Half","0","English",NA,8,6,757997
12,"A16KDMZ7CEDHNV:3PZDLQMM0UTXTC601395HUSQFGE2C4",1474877545418,12,3185,197,29,"Half","1","English",NA,8,6,757997
13,"A16KDMZ7CEDHNV:3PZDLQMM0UTXTC601395HUSQFGE2C4",1474877550587,13,5162,197,216,"Half","1","English",NA,8,6,757997
14,"A16KDMZ7CEDHNV:3PZDLQMM0UTXTC601395HUSQFGE2C4",1474877554103,14,3510,196,197,"Half","0","English",NA,8,6,757997
15,"A16KDMZ7CEDHNV:3PZDLQMM0UTXTC601395HUSQFGE2C4",1474877560509,15,6399,196,190,"Half","0","English",NA,8,6,757997
16,"A16KDMZ7CEDHNV:3PZDLQMM0UTXTC601395HUSQFGE2C4",1474877565008,16,4494,212,196,"Half","0","English",NA,8,6,757997
17,"A16KDMZ7CEDHNV:3PZDLQMM0UTXTC601395HUSQFGE2C4",1474877567703,17,2688,212,399,"Half","0","English",NA,8,6,757997
18,"A16KDMZ7CEDHNV:3PZDLQMM0UTXTC601395HUSQFGE2C4",1474877572222,18,4514,212,144,"Half","1","English",NA,8,6,757997
19,"A16KDMZ7CEDHNV:3PZDLQMM0UTXTC601395HUSQFGE2C4",1474877578474,19,6248,212,223,"Half","0","English",NA,8,6,757997
20,"A16KDMZ7CEDHNV:3PZDLQMM0UTXTC601395HUSQFGE2C4",1474877581126,20,2648,212,337,"Half","0","English",NA,8,6,757997
21,"A16KDMZ7CEDHNV:3PZDLQMM0UTXTC601395HUSQFGE2C4",1474877585309,21,4178,205,212,"Half","0","English",NA,8,6,757997
22,"A16KDMZ7CEDHNV:3PZDLQMM0UTXTC601395HUSQFGE2C4",1474877589083,22,3769,205,202,"Half","1","English",NA,8,6,757997
23,"A16KDMZ7CEDHNV:3PZDLQMM0UTXTC601395HUSQFGE2C4",1474877593343,23,4257,205,186,"Half","0","English",NA,8,6,757997
24,"A16KDMZ7CEDHNV:3PZDLQMM0UTXTC601395HUSQFGE2C4",1474877596322,24,2974,205,207,"Half","0","English",NA,8,6,757997
25,"A16KDMZ7CEDHNV:3PZDLQMM0UTXTC601395HUSQFGE2C4",1474877600382,25,4058,205,112,"Half","1","English",NA,8,6,757997
26,"A16KDMZ7CEDHNV:3PZDLQMM0UTXTC601395HUSQFGE2C4",1474877603319,26,2928,205,55,"Half","0","English",NA,8,6,757997
27,"A16KDMZ7CEDHNV:3PZDLQMM0UTXTC601395HUSQFGE2C4",1474877609774,27,6447,205,194,"Half","0","English",NA,8,6,757997
28,"A16KDMZ7CEDHNV:3PZDLQMM0UTXTC601395HUSQFGE2C4",1474877613897,28,4119,205,206,"Half","1","English",NA,8,6,757997
29,"A16KDMZ7CEDHNV:3PZDLQMM0UTXTC601395HUSQFGE2C4",1474877617735,29,3831,205,225,"Half","1","English",NA,8,6,757997
30,"A16KDMZ7CEDHNV:3PZDLQMM0UTXTC601395HUSQFGE2C4",1474877621495,30,3755,205,211,"Half","0","English",NA,8,6,757997
31,"A16KDMZ7CEDHNV:3PZDLQMM0UTXTC601395HUSQFGE2C4",1474877624231,31,2728,205,27,"Half","1","English",NA,8,6,757997
32,"A16KDMZ7CEDHNV:3PZDLQMM0UTXTC601395HUSQFGE2C4",1474877628277,32,4043,200,205,"Half","0","English",NA,8,6,757997
33,"A16KDMZ7CEDHNV:3PZDLQMM0UTXTC601395HUSQFGE2C4",1474877631758,33,3477,189,200,"Half","1","English",NA,8,6,757997
34,"A16KDMZ7CEDHNV:3PZDLQMM0UTXTC601395HUSQFGE2C4",1474877635621,34,3859,189,252,"Half","0","English",NA,8,6,757997
35,"A16KDMZ7CEDHNV:3PZDLQMM0UTXTC601395HUSQFGE2C4",1474877638551,35,2925,189,194,"Half","0","English",NA,8,6,757997
36,"A16KDMZ7CEDHNV:3PZDLQMM0UTXTC601395HUSQFGE2C4",1474877642302,36,3745,176,189,"Half","1","English",NA,8,6,757997
37,"A16KDMZ7CEDHNV:3PZDLQMM0UTXTC601395HUSQFGE2C4",1474877646494,37,4188,176,182,"Half","1","English",NA,8,6,757997
38,"A16KDMZ7CEDHNV:3PZDLQMM0UTXTC601395HUSQFGE2C4",1474877649370,38,2873,157,176,"Half","0","English",NA,8,6,757997
39,"A16KDMZ7CEDHNV:3PZDLQMM0UTXTC601395HUSQFGE2C4",1474877655853,39,6479,157,363,"Half","1","English",NA,8,6,757997
40,"A16KDMZ7CEDHNV:3PZDLQMM0UTXTC601395HUSQFGE2C4",1474877659969,40,4112,157,175,"Half","0","English",NA,8,6,757997
41,"A16KDMZ7CEDHNV:3PZDLQMM0UTXTC601395HUSQFGE2C4",1474877662864,41,2891,157,403,"Half","0","English",NA,8,6,757997
42,"A16KDMZ7CEDHNV:3PZDLQMM0UTXTC601395HUSQFGE2C4",1474877666128,42,3260,157,119,"Half","0","English",NA,8,6,757997
43,"A16KDMZ7CEDHNV:3PZDLQMM0UTXTC601395HUSQFGE2C4",1474877670284,43,4152,158,157,"Half","1","English",NA,8,6,757997
44,"A16KDMZ7CEDHNV:3PZDLQMM0UTXTC601395HUSQFGE2C4",1474877674741,44,4452,158,153,"Half","0","English",NA,8,6,757997
45,"A16KDMZ7CEDHNV:3PZDLQMM0UTXTC601395HUSQFGE2C4",1474877677652,45,2902,158,362,"Half","0","English",NA,8,6,757997
46,"A16KDMZ7CEDHNV:3PZDLQMM0UTXTC601395HUSQFGE2C4",1474877680640,46,2982,156,158,"Half","0","English",NA,8,6,757997
47,"A16KDMZ7CEDHNV:3PZDLQMM0UTXTC601395HUSQFGE2C4",1474877686760,47,6114,156,142,"Half","1","English",NA,8,6,757997
48,"A16KDMZ7CEDHNV:3PZDLQMM0UTXTC601395HUSQFGE2C4",1474877695658,48,8893,156,151,"Half","0","English",NA,8,6,757997
49,"A16KDMZ7CEDHNV:3PZDLQMM0UTXTC601395HUSQFGE2C4",1474877699326,49,3662,156,151,"Half","0","English",NA,8,6,757997
50,"A16KDMZ7CEDHNV:3PZDLQMM0UTXTC601395HUSQFGE2C4",1474877706343,50,7012,156,150,"Half","1","English",NA,8,6,757997
61,"A16KDMZ7CEDHNV:3PZDLQMM0UTXTC601395HUSQFGE2C4",1474877758378,11,2885,366,413,"Many","0","English",NA,8,6,757997
62,"A16KDMZ7CEDHNV:3PZDLQMM0UTXTC601395HUSQFGE2C4",1474877760915,12,2531,366,141,"Many","0","English",NA,8,6,757997
63,"A16KDMZ7CEDHNV:3PZDLQMM0UTXTC601395HUSQFGE2C4",1474877763746,13,2824,366,370,"Many","0","English",NA,8,6,757997
64,"A16KDMZ7CEDHNV:3PZDLQMM0UTXTC601395HUSQFGE2C4",1474877767186,14,3435,366,362,"Many","0","English",NA,8,6,757997
65,"A16KDMZ7CEDHNV:3PZDLQMM0UTXTC601395HUSQFGE2C4",1474877769728,15,2536,366,23,"Many","1","English",NA,8,6,757997
66,"A16KDMZ7CEDHNV:3PZDLQMM0UTXTC601395HUSQFGE2C4",1474877772544,16,2812,387,366,"Many","1","English",NA,8,6,757997
67,"A16KDMZ7CEDHNV:3PZDLQMM0UTXTC601395HUSQFGE2C4",1474877775837,17,3288,387,422,"Many","0","English",NA,8,6,757997
68,"A16KDMZ7CEDHNV:3PZDLQMM0UTXTC601395HUSQFGE2C4",1474877778570,18,2727,369,387,"Many","0","English",NA,8,6,757997
69,"A16KDMZ7CEDHNV:3PZDLQMM0UTXTC601395HUSQFGE2C4",1474877781355,19,2781,360,369,"Many","0","English",NA,8,6,757997
70,"A16KDMZ7CEDHNV:3PZDLQMM0UTXTC601395HUSQFGE2C4",1474877784754,20,3394,360,355,"Many","0","English",NA,8,6,757997
71,"A16KDMZ7CEDHNV:3PZDLQMM0UTXTC601395HUSQFGE2C4",1474877788326,21,3570,360,40,"Many","0","English",NA,8,6,757997
72,"A16KDMZ7CEDHNV:3PZDLQMM0UTXTC601395HUSQFGE2C4",1474877793314,22,4983,360,288,"Many","1","English",NA,8,6,757997
73,"A16KDMZ7CEDHNV:3PZDLQMM0UTXTC601395HUSQFGE2C4",1474877796289,23,2971,360,230,"Many","1","English",NA,8,6,757997
74,"A16KDMZ7CEDHNV:3PZDLQMM0UTXTC601395HUSQFGE2C4",1474877800501,24,4208,362,360,"Many","0","English",NA,8,6,757997
75,"A16KDMZ7CEDHNV:3PZDLQMM0UTXTC601395HUSQFGE2C4",1474877803692,25,3187,362,264,"Many","1","English",NA,8,6,757997
76,"A16KDMZ7CEDHNV:3PZDLQMM0UTXTC601395HUSQFGE2C4",1474877807064,26,3366,344,362,"Many","1","English",NA,8,6,757997
77,"A16KDMZ7CEDHNV:3PZDLQMM0UTXTC601395HUSQFGE2C4",1474877812328,27,5259,359,344,"Many","0","English",NA,8,6,757997
78,"A16KDMZ7CEDHNV:3PZDLQMM0UTXTC601395HUSQFGE2C4",1474877815433,28,3096,359,45,"Many","1","English",NA,8,6,757997
79,"A16KDMZ7CEDHNV:3PZDLQMM0UTXTC601395HUSQFGE2C4",1474877819839,29,4396,359,361,"Many","0","English",NA,8,6,757997
80,"A16KDMZ7CEDHNV:3PZDLQMM0UTXTC601395HUSQFGE2C4",1474877824949,30,5104,359,361,"Many","0","English",NA,8,6,757997
81,"A16KDMZ7CEDHNV:3PZDLQMM0UTXTC601395HUSQFGE2C4",1474877829606,31,4652,359,354,"Many","0","English",NA,8,6,757997
82,"A16KDMZ7CEDHNV:3PZDLQMM0UTXTC601395HUSQFGE2C4",1474877833125,32,3512,359,362,"Many","1","English",NA,8,6,757997
83,"A16KDMZ7CEDHNV:3PZDLQMM0UTXTC601395HUSQFGE2C4",1474877838542,33,5412,374,359,"Many","0","English",NA,8,6,757997
84,"A16KDMZ7CEDHNV:3PZDLQMM0UTXTC601395HUSQFGE2C4",1474877842572,34,4025,364,374,"Many","1","English",NA,8,6,757997
85,"A16KDMZ7CEDHNV:3PZDLQMM0UTXTC601395HUSQFGE2C4",1474877846051,35,3476,376,364,"Many","1","English",NA,8,6,757997
86,"A16KDMZ7CEDHNV:3PZDLQMM0UTXTC601395HUSQFGE2C4",1474877849520,36,3463,358,376,"Many","0","English",NA,8,6,757997
87,"A16KDMZ7CEDHNV:3PZDLQMM0UTXTC601395HUSQFGE2C4",1474877852801,37,3275,349,358,"Many","0","English",NA,8,6,757997
88,"A16KDMZ7CEDHNV:3PZDLQMM0UTXTC601395HUSQFGE2C4",1474877856029,38,3224,349,343,"Many","0","English",NA,8,6,757997
89,"A16KDMZ7CEDHNV:3PZDLQMM0UTXTC601395HUSQFGE2C4",1474877861643,39,5607,349,393,"Many","0","English",NA,8,6,757997
90,"A16KDMZ7CEDHNV:3PZDLQMM0UTXTC601395HUSQFGE2C4",1474877866041,40,4392,356,349,"Many","1","English",NA,8,6,757997
91,"A16KDMZ7CEDHNV:3PZDLQMM0UTXTC601395HUSQFGE2C4",1474877868939,41,2896,345,356,"Many","1","English",NA,8,6,757997
92,"A16KDMZ7CEDHNV:3PZDLQMM0UTXTC601395HUSQFGE2C4",1474877872643,42,3699,345,334,"Many","1","English",NA,8,6,757997
93,"A16KDMZ7CEDHNV:3PZDLQMM0UTXTC601395HUSQFGE2C4",1474877878312,43,5663,352,345,"Many","1","English",NA,8,6,757997
94,"A16KDMZ7CEDHNV:3PZDLQMM0UTXTC601395HUSQFGE2C4",1474877882764,44,4444,352,337,"Many","1","English",NA,8,6,757997
95,"A16KDMZ7CEDHNV:3PZDLQMM0UTXTC601395HUSQFGE2C4",1474877887145,45,4375,352,352,"Many","0","English",NA,8,6,757997
96,"A16KDMZ7CEDHNV:3PZDLQMM0UTXTC601395HUSQFGE2C4",1474877889657,46,2507,356,352,"Many","0","English",NA,8,6,757997
97,"A16KDMZ7CEDHNV:3PZDLQMM0UTXTC601395HUSQFGE2C4",1474877892689,47,3027,356,157,"Many","1","English",NA,8,6,757997
98,"A16KDMZ7CEDHNV:3PZDLQMM0UTXTC601395HUSQFGE2C4",1474877895105,48,2410,356,340,"Many","1","English",NA,8,6,757997
99,"A16KDMZ7CEDHNV:3PZDLQMM0UTXTC601395HUSQFGE2C4",1474877897891,49,2780,356,7,"Many","1","English",NA,8,6,757997
100,"A16KDMZ7CEDHNV:3PZDLQMM0UTXTC601395HUSQFGE2C4",1474877901246,50,3349,356,358,"Many","1","English",NA,8,6,757997
111,"A16KDMZ7CEDHNV:3PZDLQMM0UTXTC601395HUSQFGE2C4",1474877950656,11,3464,28,46,"Few","0","English",NA,8,6,757997
112,"A16KDMZ7CEDHNV:3PZDLQMM0UTXTC601395HUSQFGE2C4",1474877954390,12,3725,28,40,"Few","1","English",NA,8,6,757997
113,"A16KDMZ7CEDHNV:3PZDLQMM0UTXTC601395HUSQFGE2C4",1474877957609,13,3212,28,40,"Few","1","English",NA,8,6,757997
114,"A16KDMZ7CEDHNV:3PZDLQMM0UTXTC601395HUSQFGE2C4",1474877960349,14,2731,28,376,"Few","0","English",NA,8,6,757997
115,"A16KDMZ7CEDHNV:3PZDLQMM0UTXTC601395HUSQFGE2C4",1474877963297,15,2942,28,45,"Few","0","English",NA,8,6,757997
116,"A16KDMZ7CEDHNV:3PZDLQMM0UTXTC601395HUSQFGE2C4",1474877966589,16,3287,13,28,"Few","1","English",NA,8,6,757997
117,"A16KDMZ7CEDHNV:3PZDLQMM0UTXTC601395HUSQFGE2C4",1474877969290,17,2694,13,168,"Few","0","English",NA,8,6,757997
118,"A16KDMZ7CEDHNV:3PZDLQMM0UTXTC601395HUSQFGE2C4",1474877974486,18,5191,13,25,"Few","0","English",NA,8,6,757997
119,"A16KDMZ7CEDHNV:3PZDLQMM0UTXTC601395HUSQFGE2C4",1474877977304,19,2812,13,24,"Few","0","English",NA,8,6,757997
120,"A16KDMZ7CEDHNV:3PZDLQMM0UTXTC601395HUSQFGE2C4",1474877980921,20,3611,13,50,"Few","0","English",NA,8,6,757997
121,"A16KDMZ7CEDHNV:3PZDLQMM0UTXTC601395HUSQFGE2C4",1474877983514,21,2587,13,348,"Few","1","English",NA,8,6,757997
122,"A16KDMZ7CEDHNV:3PZDLQMM0UTXTC601395HUSQFGE2C4",1474877986632,22,3112,13,179,"Few","0","English",NA,8,6,757997
123,"A16KDMZ7CEDHNV:3PZDLQMM0UTXTC601395HUSQFGE2C4",1474877990000,23,3364,13,32,"Few","1","English",NA,8,6,757997
124,"A16KDMZ7CEDHNV:3PZDLQMM0UTXTC601395HUSQFGE2C4",1474877994162,24,4157,6,13,"Few","0","English",NA,8,6,757997
125,"A16KDMZ7CEDHNV:3PZDLQMM0UTXTC601395HUSQFGE2C4",1474877998184,25,4017,12,6,"Few","0","English",NA,8,6,757997
126,"A16KDMZ7CEDHNV:3PZDLQMM0UTXTC601395HUSQFGE2C4",1474878001536,26,3347,12,283,"Few","0","English",NA,8,6,757997
127,"A16KDMZ7CEDHNV:3PZDLQMM0UTXTC601395HUSQFGE2C4",1474878004098,27,2558,12,91,"Few","1","English",NA,8,6,757997
128,"A16KDMZ7CEDHNV:3PZDLQMM0UTXTC601395HUSQFGE2C4",1474878007306,28,3204,12,138,"Few","1","English",NA,8,6,757997
129,"A16KDMZ7CEDHNV:3PZDLQMM0UTXTC601395HUSQFGE2C4",1474878009836,29,2520,12,387,"Few","0","English",NA,8,6,757997
130,"A16KDMZ7CEDHNV:3PZDLQMM0UTXTC601395HUSQFGE2C4",1474878012736,30,2893,12,17,"Few","0","English",NA,8,6,757997
131,"A16KDMZ7CEDHNV:3PZDLQMM0UTXTC601395HUSQFGE2C4",1474878016845,31,4103,12,17,"Few","1","English",NA,8,6,757997
132,"A16KDMZ7CEDHNV:3PZDLQMM0UTXTC601395HUSQFGE2C4",1474878019905,32,3054,12,432,"Few","0","English",NA,8,6,757997
133,"A16KDMZ7CEDHNV:3PZDLQMM0UTXTC601395HUSQFGE2C4",1474878023103,33,3192,12,18,"Few","0","English",NA,8,6,757997
134,"A16KDMZ7CEDHNV:3PZDLQMM0UTXTC601395HUSQFGE2C4",1474878026011,34,2903,12,345,"Few","1","English",NA,8,6,757997
135,"A16KDMZ7CEDHNV:3PZDLQMM0UTXTC601395HUSQFGE2C4",1474878029095,35,3078,12,124,"Few","0","English",NA,8,6,757997
136,"A16KDMZ7CEDHNV:3PZDLQMM0UTXTC601395HUSQFGE2C4",1474878031595,36,2496,12,12,"Few","0","English",NA,8,6,757997
137,"A16KDMZ7CEDHNV:3PZDLQMM0UTXTC601395HUSQFGE2C4",1474878035225,37,3625,174,12,"Few","0","English",NA,8,6,757997
138,"A16KDMZ7CEDHNV:3PZDLQMM0UTXTC601395HUSQFGE2C4",1474878039389,38,4159,177,174,"Few","1","English",NA,8,6,757997
139,"A16KDMZ7CEDHNV:3PZDLQMM0UTXTC601395HUSQFGE2C4",1474878042102,39,2707,177,379,"Few","0","English",NA,8,6,757997
140,"A16KDMZ7CEDHNV:3PZDLQMM0UTXTC601395HUSQFGE2C4",1474878046724,40,4617,177,178,"Few","0","English",NA,8,6,757997
141,"A16KDMZ7CEDHNV:3PZDLQMM0UTXTC601395HUSQFGE2C4",1474878049845,41,3116,177,417,"Few","1","English",NA,8,6,757997
142,"A16KDMZ7CEDHNV:3PZDLQMM0UTXTC601395HUSQFGE2C4",1474878053510,42,3662,42,177,"Few","0","English",NA,8,6,757997
143,"A16KDMZ7CEDHNV:3PZDLQMM0UTXTC601395HUSQFGE2C4",1474878056403,43,2888,42,56,"Few","0","English",NA,8,6,757997
144,"A16KDMZ7CEDHNV:3PZDLQMM0UTXTC601395HUSQFGE2C4",1474878059302,44,2894,42,190,"Few","0","English",NA,8,6,757997
145,"A16KDMZ7CEDHNV:3PZDLQMM0UTXTC601395HUSQFGE2C4",1474878061306,45,2001,42,396,"Few","0","English",NA,8,6,757997
146,"A16KDMZ7CEDHNV:3PZDLQMM0UTXTC601395HUSQFGE2C4",1474878064504,46,3192,42,44,"Few","1","English",NA,8,6,757997
147,"A16KDMZ7CEDHNV:3PZDLQMM0UTXTC601395HUSQFGE2C4",1474878067591,47,3084,42,38,"Few","1","English",NA,8,6,757997
148,"A16KDMZ7CEDHNV:3PZDLQMM0UTXTC601395HUSQFGE2C4",1474878069934,48,2339,42,74,"Few","1","English",NA,8,6,757997
149,"A16KDMZ7CEDHNV:3PZDLQMM0UTXTC601395HUSQFGE2C4",1474878073322,49,3384,42,98,"Few","0","English",NA,8,6,757997
150,"A16KDMZ7CEDHNV:3PZDLQMM0UTXTC601395HUSQFGE2C4",1474878076375,50,3050,40,42,"Few","0","English",NA,8,6,757997
161,"A16KDMZ7CEDHNV:3PZDLQMM0UTXTC601395HUSQFGE2C4",1474878113428,11,3394,400,410,"Most","1","English",NA,8,6,757997
162,"A16KDMZ7CEDHNV:3PZDLQMM0UTXTC601395HUSQFGE2C4",1474878117450,12,4020,390,400,"Most","0","English",NA,8,6,757997
163,"A16KDMZ7CEDHNV:3PZDLQMM0UTXTC601395HUSQFGE2C4",1474878120450,13,2995,390,244,"Most","0","English",NA,8,6,757997
164,"A16KDMZ7CEDHNV:3PZDLQMM0UTXTC601395HUSQFGE2C4",1474878123640,14,3185,390,79,"Most","1","English",NA,8,6,757997
165,"A16KDMZ7CEDHNV:3PZDLQMM0UTXTC601395HUSQFGE2C4",1474878127895,15,4251,383,390,"Most","1","English",NA,8,6,757997
166,"A16KDMZ7CEDHNV:3PZDLQMM0UTXTC601395HUSQFGE2C4",1474878130930,16,3031,391,383,"Most","0","English",NA,8,6,757997
167,"A16KDMZ7CEDHNV:3PZDLQMM0UTXTC601395HUSQFGE2C4",1474878135960,17,5025,391,372,"Most","1","English",NA,8,6,757997
168,"A16KDMZ7CEDHNV:3PZDLQMM0UTXTC601395HUSQFGE2C4",1474878139762,18,3797,391,106,"Most","1","English",NA,8,6,757997
169,"A16KDMZ7CEDHNV:3PZDLQMM0UTXTC601395HUSQFGE2C4",1474878143821,19,4054,373,391,"Most","0","English",NA,8,6,757997
170,"A16KDMZ7CEDHNV:3PZDLQMM0UTXTC601395HUSQFGE2C4",1474878148617,20,4788,382,373,"Most","1","English",NA,8,6,757997
171,"A16KDMZ7CEDHNV:3PZDLQMM0UTXTC601395HUSQFGE2C4",1474878152131,21,3506,382,384,"Most","0","English",NA,8,6,757997
172,"A16KDMZ7CEDHNV:3PZDLQMM0UTXTC601395HUSQFGE2C4",1474878155986,22,3846,382,356,"Most","1","English",NA,8,6,757997
173,"A16KDMZ7CEDHNV:3PZDLQMM0UTXTC601395HUSQFGE2C4",1474878159408,23,3414,382,85,"Most","1","English",NA,8,6,757997
174,"A16KDMZ7CEDHNV:3PZDLQMM0UTXTC601395HUSQFGE2C4",1474878162976,24,3560,369,382,"Most","0","English",NA,8,6,757997
175,"A16KDMZ7CEDHNV:3PZDLQMM0UTXTC601395HUSQFGE2C4",1474878166330,25,3348,369,329,"Most","1","English",NA,8,6,757997
176,"A16KDMZ7CEDHNV:3PZDLQMM0UTXTC601395HUSQFGE2C4",1474878170246,26,3910,369,374,"Most","0","English",NA,8,6,757997
177,"A16KDMZ7CEDHNV:3PZDLQMM0UTXTC601395HUSQFGE2C4",1474878173600,27,3348,369,241,"Most","1","English",NA,8,6,757997
178,"A16KDMZ7CEDHNV:3PZDLQMM0UTXTC601395HUSQFGE2C4",1474878177332,28,3726,369,164,"Most","0","English",NA,8,6,757997
179,"A16KDMZ7CEDHNV:3PZDLQMM0UTXTC601395HUSQFGE2C4",1474878180092,29,2756,369,53,"Most","1","English",NA,8,6,757997
180,"A16KDMZ7CEDHNV:3PZDLQMM0UTXTC601395HUSQFGE2C4",1474878183965,30,3867,369,361,"Most","0","English",NA,8,6,757997
181,"A16KDMZ7CEDHNV:3PZDLQMM0UTXTC601395HUSQFGE2C4",1474878187142,31,3171,369,223,"Most","0","English",NA,8,6,757997
182,"A16KDMZ7CEDHNV:3PZDLQMM0UTXTC601395HUSQFGE2C4",1474878191953,32,4807,354,369,"Most","1","English",NA,8,6,757997
183,"A16KDMZ7CEDHNV:3PZDLQMM0UTXTC601395HUSQFGE2C4",1474878195292,33,3332,354,160,"Most","0","English",NA,8,6,757997
184,"A16KDMZ7CEDHNV:3PZDLQMM0UTXTC601395HUSQFGE2C4",1474878198519,34,3222,354,65,"Most","0","English",NA,8,6,757997
185,"A16KDMZ7CEDHNV:3PZDLQMM0UTXTC601395HUSQFGE2C4",1474878203689,35,5165,354,116,"Most","1","English",NA,8,6,757997
186,"A16KDMZ7CEDHNV:3PZDLQMM0UTXTC601395HUSQFGE2C4",1474878207201,36,3508,354,344,"Most","0","English",NA,8,6,757997
187,"A16KDMZ7CEDHNV:3PZDLQMM0UTXTC601395HUSQFGE2C4",1474878210881,37,3672,335,354,"Most","1","English",NA,8,6,757997
188,"A16KDMZ7CEDHNV:3PZDLQMM0UTXTC601395HUSQFGE2C4",1474878214532,38,3641,335,97,"Most","1","English",NA,8,6,757997
189,"A16KDMZ7CEDHNV:3PZDLQMM0UTXTC601395HUSQFGE2C4",1474878217699,39,3159,335,276,"Most","0","English",NA,8,6,757997
190,"A16KDMZ7CEDHNV:3PZDLQMM0UTXTC601395HUSQFGE2C4",1474878223385,40,5678,335,336,"Most","1","English",NA,8,6,757997
191,"A16KDMZ7CEDHNV:3PZDLQMM0UTXTC601395HUSQFGE2C4",1474878226783,41,3392,335,339,"Most","1","English",NA,8,6,757997
192,"A16KDMZ7CEDHNV:3PZDLQMM0UTXTC601395HUSQFGE2C4",1474878230847,42,4057,345,335,"Most","0","English",NA,8,6,757997
193,"A16KDMZ7CEDHNV:3PZDLQMM0UTXTC601395HUSQFGE2C4",1474878233821,43,2966,390,345,"Most","1","English",NA,8,6,757997
194,"A16KDMZ7CEDHNV:3PZDLQMM0UTXTC601395HUSQFGE2C4",1474878237301,44,3476,390,373,"Most","0","English",NA,8,6,757997
195,"A16KDMZ7CEDHNV:3PZDLQMM0UTXTC601395HUSQFGE2C4",1474878240164,45,2859,396,390,"Most","0","English",NA,8,6,757997
196,"A16KDMZ7CEDHNV:3PZDLQMM0UTXTC601395HUSQFGE2C4",1474878243214,46,3046,396,390,"Most","1","English",NA,8,6,757997
197,"A16KDMZ7CEDHNV:3PZDLQMM0UTXTC601395HUSQFGE2C4",1474878247787,47,4569,396,406,"Most","1","English",NA,8,6,757997
198,"A16KDMZ7CEDHNV:3PZDLQMM0UTXTC601395HUSQFGE2C4",1474878252768,48,4977,396,153,"Most","0","English",NA,8,6,757997
199,"A16KDMZ7CEDHNV:3PZDLQMM0UTXTC601395HUSQFGE2C4",1474878255939,49,3168,396,1,"Most","1","English",NA,8,6,757997
200,"A16KDMZ7CEDHNV:3PZDLQMM0UTXTC601395HUSQFGE2C4",1474878259886,50,3942,396,386,"Most","0","English",NA,8,6,757997
211,"A17PAQSQ74L915:3AAJC4I4FH0A71FI02Z5R9FSQ9LZJM",1474876911106,11,1736,23,394,"Few","1","English",NA,7,3,487803
212,"A17PAQSQ74L915:3AAJC4I4FH0A71FI02Z5R9FSQ9LZJM",1474876913485,12,2378,14,23,"Few","1","English",NA,7,3,487803
213,"A17PAQSQ74L915:3AAJC4I4FH0A71FI02Z5R9FSQ9LZJM",1474876916220,13,2733,14,421,"Few","0","English",NA,7,3,487803
214,"A17PAQSQ74L915:3AAJC4I4FH0A71FI02Z5R9FSQ9LZJM",1474876919150,14,2928,14,178,"Few","1","English",NA,7,3,487803
215,"A17PAQSQ74L915:3AAJC4I4FH0A71FI02Z5R9FSQ9LZJM",1474876921102,15,1950,14,97,"Few","0","English",NA,7,3,487803
216,"A17PAQSQ74L915:3AAJC4I4FH0A71FI02Z5R9FSQ9LZJM",1474876923215,16,2110,14,33,"Few","1","English",NA,7,3,487803
217,"A17PAQSQ74L915:3AAJC4I4FH0A71FI02Z5R9FSQ9LZJM",1474876925393,17,2177,14,165,"Few","0","English",NA,7,3,487803
218,"A17PAQSQ74L915:3AAJC4I4FH0A71FI02Z5R9FSQ9LZJM",1474876927316,18,1921,14,127,"Few","1","English",NA,7,3,487803
219,"A17PAQSQ74L915:3AAJC4I4FH0A71FI02Z5R9FSQ9LZJM",1474876928905,19,1588,14,394,"Few","1","English",NA,7,3,487803
220,"A17PAQSQ74L915:3AAJC4I4FH0A71FI02Z5R9FSQ9LZJM",1474876930779,20,1872,14,14,"Few","1","English",NA,7,3,487803
221,"A17PAQSQ74L915:3AAJC4I4FH0A71FI02Z5R9FSQ9LZJM",1474876932799,21,2019,14,193,"Few","0","English",NA,7,3,487803
222,"A17PAQSQ74L915:3AAJC4I4FH0A71FI02Z5R9FSQ9LZJM",1474876937618,22,4817,10,14,"Few","1","English",NA,7,3,487803
223,"A17PAQSQ74L915:3AAJC4I4FH0A71FI02Z5R9FSQ9LZJM",1474876942571,23,4953,5,10,"Few","1","English",NA,7,3,487803
224,"A17PAQSQ74L915:3AAJC4I4FH0A71FI02Z5R9FSQ9LZJM",1474876945577,24,3005,5,421,"Few","0","English",NA,7,3,487803
225,"A17PAQSQ74L915:3AAJC4I4FH0A71FI02Z5R9FSQ9LZJM",1474876947310,25,1732,5,425,"Few","1","English",NA,7,3,487803
226,"A17PAQSQ74L915:3AAJC4I4FH0A71FI02Z5R9FSQ9LZJM",1474876949887,26,2576,5,24,"Few","0","English",NA,7,3,487803
227,"A17PAQSQ74L915:3AAJC4I4FH0A71FI02Z5R9FSQ9LZJM",1474876951294,27,1404,5,417,"Few","0","English",NA,7,3,487803
228,"A17PAQSQ74L915:3AAJC4I4FH0A71FI02Z5R9FSQ9LZJM",1474876953138,28,1842,5,24,"Few","1","English",NA,7,3,487803
229,"A17PAQSQ74L915:3AAJC4I4FH0A71FI02Z5R9FSQ9LZJM",1474876954428,29,1287,5,69,"Few","1","English",NA,7,3,487803
230,"A17PAQSQ74L915:3AAJC4I4FH0A71FI02Z5R9FSQ9LZJM",1474876958968,30,4538,5,5,"Few","0","English",NA,7,3,487803
231,"A17PAQSQ74L915:3AAJC4I4FH0A71FI02Z5R9FSQ9LZJM",1474876960952,31,1982,5,248,"Few","0","English",NA,7,3,487803
232,"A17PAQSQ74L915:3AAJC4I4FH0A71FI02Z5R9FSQ9LZJM",1474876963404,32,2449,5,24,"Few","0","English",NA,7,3,487803
233,"A17PAQSQ74L915:3AAJC4I4FH0A71FI02Z5R9FSQ9LZJM",1474876966550,33,3144,5,3,"Few","0","English",NA,7,3,487803
234,"A17PAQSQ74L915:3AAJC4I4FH0A71FI02Z5R9FSQ9LZJM",1474876967837,34,1284,5,168,"Few","0","English",NA,7,3,487803
235,"A17PAQSQ74L915:3AAJC4I4FH0A71FI02Z5R9FSQ9LZJM",1474876969994,35,2156,3,5,"Few","0","English",NA,7,3,487803
236,"A17PAQSQ74L915:3AAJC4I4FH0A71FI02Z5R9FSQ9LZJM",1474876973613,36,3617,3,80,"Few","1","English",NA,7,3,487803
237,"A17PAQSQ74L915:3AAJC4I4FH0A71FI02Z5R9FSQ9LZJM",1474876975826,37,2212,3,154,"Few","0","English",NA,7,3,487803
238,"A17PAQSQ74L915:3AAJC4I4FH0A71FI02Z5R9FSQ9LZJM",1474876978341,38,2514,312,3,"Few","0","English",NA,7,3,487803
239,"A17PAQSQ74L915:3AAJC4I4FH0A71FI02Z5R9FSQ9LZJM",1474876982499,39,4157,204,312,"Few","1","English",NA,7,3,487803
240,"A17PAQSQ74L915:3AAJC4I4FH0A71FI02Z5R9FSQ9LZJM",1474876985410,40,2910,397,204,"Few","1","English",NA,7,3,487803
241,"A17PAQSQ74L915:3AAJC4I4FH0A71FI02Z5R9FSQ9LZJM",1474876987593,41,2182,67,397,"Few","0","English",NA,7,3,487803
242,"A17PAQSQ74L915:3AAJC4I4FH0A71FI02Z5R9FSQ9LZJM",1474876989361,42,1766,37,67,"Few","0","English",NA,7,3,487803
243,"A17PAQSQ74L915:3AAJC4I4FH0A71FI02Z5R9FSQ9LZJM",1474876990782,43,1421,37,342,"Few","0","English",NA,7,3,487803
244,"A17PAQSQ74L915:3AAJC4I4FH0A71FI02Z5R9FSQ9LZJM",1474876994814,44,4031,24,37,"Few","1","English",NA,7,3,487803
245,"A17PAQSQ74L915:3AAJC4I4FH0A71FI02Z5R9FSQ9LZJM",1474876996494,45,1679,24,403,"Few","0","English",NA,7,3,487803
246,"A17PAQSQ74L915:3AAJC4I4FH0A71FI02Z5R9FSQ9LZJM",1474876999296,46,2801,23,24,"Few","0","English",NA,7,3,487803
247,"A17PAQSQ74L915:3AAJC4I4FH0A71FI02Z5R9FSQ9LZJM",1474877001308,47,2009,23,259,"Few","1","English",NA,7,3,487803
248,"A17PAQSQ74L915:3AAJC4I4FH0A71FI02Z5R9FSQ9LZJM",1474877003392,48,2083,23,42,"Few","0","English",NA,7,3,487803
249,"A17PAQSQ74L915:3AAJC4I4FH0A71FI02Z5R9FSQ9LZJM",1474877004548,49,1154,23,263,"Few","1","English",NA,7,3,487803
250,"A17PAQSQ74L915:3AAJC4I4FH0A71FI02Z5R9FSQ9LZJM",1474877006841,50,2292,35,23,"Few","0","English",NA,7,3,487803
261,"A17PAQSQ74L915:3AAJC4I4FH0A71FI02Z5R9FSQ9LZJM",1474877056659,11,3376,124,115,"About half","1","English",NA,7,3,487803
262,"A17PAQSQ74L915:3AAJC4I4FH0A71FI02Z5R9FSQ9LZJM",1474877058745,12,2084,124,112,"About half","1","English",NA,7,3,487803
263,"A17PAQSQ74L915:3AAJC4I4FH0A71FI02Z5R9FSQ9LZJM",1474877060640,13,1893,124,366,"About half","1","English",NA,7,3,487803
264,"A17PAQSQ74L915:3AAJC4I4FH0A71FI02Z5R9FSQ9LZJM",1474877062571,14,1928,132,124,"About half","0","English",NA,7,3,487803
265,"A17PAQSQ74L915:3AAJC4I4FH0A71FI02Z5R9FSQ9LZJM",1474877064612,15,2039,117,132,"About half","1","English",NA,7,3,487803
266,"A17PAQSQ74L915:3AAJC4I4FH0A71FI02Z5R9FSQ9LZJM",1474877065840,16,1227,117,407,"About half","0","English",NA,7,3,487803
267,"A17PAQSQ74L915:3AAJC4I4FH0A71FI02Z5R9FSQ9LZJM",1474877067784,17,1943,117,59,"About half","0","English",NA,7,3,487803
268,"A17PAQSQ74L915:3AAJC4I4FH0A71FI02Z5R9FSQ9LZJM",1474877069356,18,1571,135,117,"About half","1","English",NA,7,3,487803
269,"A17PAQSQ74L915:3AAJC4I4FH0A71FI02Z5R9FSQ9LZJM",1474877070429,19,1072,135,409,"About half","0","English",NA,7,3,487803
270,"A17PAQSQ74L915:3AAJC4I4FH0A71FI02Z5R9FSQ9LZJM",1474877071997,20,1566,141,135,"About half","1","English",NA,7,3,487803
271,"A17PAQSQ74L915:3AAJC4I4FH0A71FI02Z5R9FSQ9LZJM",1474877074463,21,2465,141,157,"About half","0","English",NA,7,3,487803
272,"A17PAQSQ74L915:3AAJC4I4FH0A71FI02Z5R9FSQ9LZJM",1474877076292,22,1827,161,141,"About half","0","English",NA,7,3,487803
273,"A17PAQSQ74L915:3AAJC4I4FH0A71FI02Z5R9FSQ9LZJM",1474877078306,23,2014,153,161,"About half","0","English",NA,7,3,487803
274,"A17PAQSQ74L915:3AAJC4I4FH0A71FI02Z5R9FSQ9LZJM",1474877080305,24,1999,153,259,"About half","1","English",NA,7,3,487803
275,"A17PAQSQ74L915:3AAJC4I4FH0A71FI02Z5R9FSQ9LZJM",1474877082531,25,2225,153,276,"About half","1","English",NA,7,3,487803
276,"A17PAQSQ74L915:3AAJC4I4FH0A71FI02Z5R9FSQ9LZJM",1474877084705,26,2174,153,22,"About half","1","English",NA,7,3,487803
277,"A17PAQSQ74L915:3AAJC4I4FH0A71FI02Z5R9FSQ9LZJM",1474877087087,27,2382,153,143,"About half","1","English",NA,7,3,487803
278,"A17PAQSQ74L915:3AAJC4I4FH0A71FI02Z5R9FSQ9LZJM",1474877088962,28,1874,167,153,"About half","1","English",NA,7,3,487803
279,"A17PAQSQ74L915:3AAJC4I4FH0A71FI02Z5R9FSQ9LZJM",1474877090865,29,1902,167,28,"About half","1","English",NA,7,3,487803
280,"A17PAQSQ74L915:3AAJC4I4FH0A71FI02Z5R9FSQ9LZJM",1474877093548,30,2682,167,143,"About half","0","English",NA,7,3,487803
281,"A17PAQSQ74L915:3AAJC4I4FH0A71FI02Z5R9FSQ9LZJM",1474877094707,31,1158,167,18,"About half","0","English",NA,7,3,487803
282,"A17PAQSQ74L915:3AAJC4I4FH0A71FI02Z5R9FSQ9LZJM",1474877096194,32,1487,167,376,"About half","0","English",NA,7,3,487803
283,"A17PAQSQ74L915:3AAJC4I4FH0A71FI02Z5R9FSQ9LZJM",1474877098575,33,2379,167,157,"About half","1","English",NA,7,3,487803
284,"A17PAQSQ74L915:3AAJC4I4FH0A71FI02Z5R9FSQ9LZJM",1474877100361,34,1785,167,156,"About half","0","English",NA,7,3,487803
285,"A17PAQSQ74L915:3AAJC4I4FH0A71FI02Z5R9FSQ9LZJM",1474877102322,35,1959,161,167,"About half","0","English",NA,7,3,487803
286,"A17PAQSQ74L915:3AAJC4I4FH0A71FI02Z5R9FSQ9LZJM",1474877104024,36,1701,161,176,"About half","1","English",NA,7,3,487803
287,"A17PAQSQ74L915:3AAJC4I4FH0A71FI02Z5R9FSQ9LZJM",1474877105473,37,1448,161,12,"About half","0","English",NA,7,3,487803
288,"A17PAQSQ74L915:3AAJC4I4FH0A71FI02Z5R9FSQ9LZJM",1474877107989,38,2515,153,161,"About half","0","English",NA,7,3,487803
289,"A17PAQSQ74L915:3AAJC4I4FH0A71FI02Z5R9FSQ9LZJM",1474877109610,39,1620,153,179,"About half","0","English",NA,7,3,487803
290,"A17PAQSQ74L915:3AAJC4I4FH0A71FI02Z5R9FSQ9LZJM",1474877110731,40,1120,153,35,"About half","1","English",NA,7,3,487803
291,"A17PAQSQ74L915:3AAJC4I4FH0A71FI02Z5R9FSQ9LZJM",1474877111943,41,1211,153,136,"About half","0","English",NA,7,3,487803
292,"A17PAQSQ74L915:3AAJC4I4FH0A71FI02Z5R9FSQ9LZJM",1474877113715,42,1772,153,137,"About half","1","English",NA,7,3,487803
293,"A17PAQSQ74L915:3AAJC4I4FH0A71FI02Z5R9FSQ9LZJM",1474877118121,43,4405,162,153,"About half","1","English",NA,7,3,487803
294,"A17PAQSQ74L915:3AAJC4I4FH0A71FI02Z5R9FSQ9LZJM",1474877119640,44,1518,162,327,"About half","1","English",NA,7,3,487803
295,"A17PAQSQ74L915:3AAJC4I4FH0A71FI02Z5R9FSQ9LZJM",1474877121410,45,1769,162,162,"About half","0","English",NA,7,3,487803
296,"A17PAQSQ74L915:3AAJC4I4FH0A71FI02Z5R9FSQ9LZJM",1474877122724,46,1313,142,162,"About half","0","English",NA,7,3,487803
297,"A17PAQSQ74L915:3AAJC4I4FH0A71FI02Z5R9FSQ9LZJM",1474877125851,47,3126,142,125,"About half","1","English",NA,7,3,487803
298,"A17PAQSQ74L915:3AAJC4I4FH0A71FI02Z5R9FSQ9LZJM",1474877126873,48,1020,142,360,"About half","1","English",NA,7,3,487803
299,"A17PAQSQ74L915:3AAJC4I4FH0A71FI02Z5R9FSQ9LZJM",1474877128363,49,1489,129,142,"About half","0","English",NA,7,3,487803
300,"A17PAQSQ74L915:3AAJC4I4FH0A71FI02Z5R9FSQ9LZJM",1474877130126,50,1760,187,129,"About half","0","English",NA,7,3,487803
311,"A17PAQSQ74L915:3AAJC4I4FH0A71FI02Z5R9FSQ9LZJM",1474877158902,11,1331,150,257,"Very few","1","English",NA,7,3,487803
312,"A17PAQSQ74L915:3AAJC4I4FH0A71FI02Z5R9FSQ9LZJM",1474877160986,12,2082,181,150,"Very few","0","English",NA,7,3,487803
313,"A17PAQSQ74L915:3AAJC4I4FH0A71FI02Z5R9FSQ9LZJM",1474877164309,13,3321,181,351,"Very few","0","English",NA,7,3,487803
314,"A17PAQSQ74L915:3AAJC4I4FH0A71FI02Z5R9FSQ9LZJM",1474877167707,14,3398,174,181,"Very few","0","English",NA,7,3,487803
315,"A17PAQSQ74L915:3AAJC4I4FH0A71FI02Z5R9FSQ9LZJM",1474877168911,15,1204,174,353,"Very few","1","English",NA,7,3,487803
316,"A17PAQSQ74L915:3AAJC4I4FH0A71FI02Z5R9FSQ9LZJM",1474877171658,16,2745,190,174,"Very few","0","English",NA,7,3,487803
317,"A17PAQSQ74L915:3AAJC4I4FH0A71FI02Z5R9FSQ9LZJM",1474877172606,17,947,190,422,"Very few","0","English",NA,7,3,487803
318,"A17PAQSQ74L915:3AAJC4I4FH0A71FI02Z5R9FSQ9LZJM",1474877221571,18,48964,190,379,"Very few","0","English",NA,7,3,487803
319,"A17PAQSQ74L915:3AAJC4I4FH0A71FI02Z5R9FSQ9LZJM",1474877223167,19,1595,190,207,"Very few","1","English",NA,7,3,487803
320,"A17PAQSQ74L915:3AAJC4I4FH0A71FI02Z5R9FSQ9LZJM",1474877227906,20,4738,190,179,"Very few","0","English",NA,7,3,487803
321,"A17PAQSQ74L915:3AAJC4I4FH0A71FI02Z5R9FSQ9LZJM",1474877229667,21,1759,175,190,"Very few","0","English",NA,7,3,487803
322,"A17PAQSQ74L915:3AAJC4I4FH0A71FI02Z5R9FSQ9LZJM",1474877232227,22,2558,211,175,"Very few","0","English",NA,7,3,487803
323,"A17PAQSQ74L915:3AAJC4I4FH0A71FI02Z5R9FSQ9LZJM",1474877234353,23,2123,201,211,"Very few","0","English",NA,7,3,487803
324,"A17PAQSQ74L915:3AAJC4I4FH0A71FI02Z5R9FSQ9LZJM",1474877236165,24,1811,202,201,"Very few","0","English",NA,7,3,487803
325,"A17PAQSQ74L915:3AAJC4I4FH0A71FI02Z5R9FSQ9LZJM",1474877237965,25,1799,220,202,"Very few","0","English",NA,7,3,487803
326,"A17PAQSQ74L915:3AAJC4I4FH0A71FI02Z5R9FSQ9LZJM",1474877241377,26,3411,220,236,"Very few","1","English",NA,7,3,487803
327,"A17PAQSQ74L915:3AAJC4I4FH0A71FI02Z5R9FSQ9LZJM",1474877244217,27,2835,220,226,"Very few","1","English",NA,7,3,487803
328,"A17PAQSQ74L915:3AAJC4I4FH0A71FI02Z5R9FSQ9LZJM",1474877245806,28,1587,205,220,"Very few","0","English",NA,7,3,487803
329,"A17PAQSQ74L915:3AAJC4I4FH0A71FI02Z5R9FSQ9LZJM",1474877249735,29,3926,204,205,"Very few","1","English",NA,7,3,487803
330,"A17PAQSQ74L915:3AAJC4I4FH0A71FI02Z5R9FSQ9LZJM",1474877252052,30,2315,204,185,"Very few","1","English",NA,7,3,487803
331,"A17PAQSQ74L915:3AAJC4I4FH0A71FI02Z5R9FSQ9LZJM",1474877253532,31,1479,204,197,"Very few","0","English",NA,7,3,487803
332,"A17PAQSQ74L915:3AAJC4I4FH0A71FI02Z5R9FSQ9LZJM",1474877255276,32,1744,204,259,"Very few","0","English",NA,7,3,487803
333,"A17PAQSQ74L915:3AAJC4I4FH0A71FI02Z5R9FSQ9LZJM",1474877260983,33,5706,211,204,"Very few","0","English",NA,7,3,487803
334,"A17PAQSQ74L915:3AAJC4I4FH0A71FI02Z5R9FSQ9LZJM",1474877262394,34,1410,211,207,"Very few","1","English",NA,7,3,487803
335,"A17PAQSQ74L915:3AAJC4I4FH0A71FI02Z5R9FSQ9LZJM",1474877263532,35,1137,211,430,"Very few","0","English",NA,7,3,487803
336,"A17PAQSQ74L915:3AAJC4I4FH0A71FI02Z5R9FSQ9LZJM",1474877265391,36,1858,93,211,"Very few","1","English",NA,7,3,487803
337,"A17PAQSQ74L915:3AAJC4I4FH0A71FI02Z5R9FSQ9LZJM",1474877266902,37,1508,93,265,"Very few","0","English",NA,7,3,487803
338,"A17PAQSQ74L915:3AAJC4I4FH0A71FI02Z5R9FSQ9LZJM",1474877267855,38,951,93,299,"Very few","1","English",NA,7,3,487803
339,"A17PAQSQ74L915:3AAJC4I4FH0A71FI02Z5R9FSQ9LZJM",1474877268966,39,1109,93,373,"Very few","1","English",NA,7,3,487803
340,"A17PAQSQ74L915:3AAJC4I4FH0A71FI02Z5R9FSQ9LZJM",1474877269762,40,794,93,426,"Very few","1","English",NA,7,3,487803
341,"A17PAQSQ74L915:3AAJC4I4FH0A71FI02Z5R9FSQ9LZJM",1474877271565,41,1802,93,106,"Very few","0","English",NA,7,3,487803
342,"A17PAQSQ74L915:3AAJC4I4FH0A71FI02Z5R9FSQ9LZJM",1474877273009,42,1443,93,95,"Very few","0","English",NA,7,3,487803
343,"A17PAQSQ74L915:3AAJC4I4FH0A71FI02Z5R9FSQ9LZJM",1474877274299,43,1287,93,95,"Very few","0","English",NA,7,3,487803
344,"A17PAQSQ74L915:3AAJC4I4FH0A71FI02Z5R9FSQ9LZJM",1474877275916,44,1616,93,139,"Very few","1","English",NA,7,3,487803
345,"A17PAQSQ74L915:3AAJC4I4FH0A71FI02Z5R9FSQ9LZJM",1474877276538,45,622,93,118,"Very few","1","English",NA,7,3,487803
346,"A17PAQSQ74L915:3AAJC4I4FH0A71FI02Z5R9FSQ9LZJM",1474877277648,46,1108,91,93,"Very few","0","English",NA,7,3,487803
347,"A17PAQSQ74L915:3AAJC4I4FH0A71FI02Z5R9FSQ9LZJM",1474877279356,47,1706,91,91,"Very few","0","English",NA,7,3,487803
348,"A17PAQSQ74L915:3AAJC4I4FH0A71FI02Z5R9FSQ9LZJM",1474877280802,48,1444,91,282,"Very few","0","English",NA,7,3,487803
349,"A17PAQSQ74L915:3AAJC4I4FH0A71FI02Z5R9FSQ9LZJM",1474877282107,49,1303,91,85,"Very few","1","English",NA,7,3,487803
350,"A17PAQSQ74L915:3AAJC4I4FH0A71FI02Z5R9FSQ9LZJM",1474877283237,50,1127,95,91,"Very few","0","English",NA,7,3,487803
361,"A17PAQSQ74L915:3AAJC4I4FH0A71FI02Z5R9FSQ9LZJM",1474877303018,11,1020,18,280,"Less than half","1","English",NA,7,3,487803
362,"A17PAQSQ74L915:3AAJC4I4FH0A71FI02Z5R9FSQ9LZJM",1474877304281,12,1261,18,209,"Less than half","1","English",NA,7,3,487803
363,"A17PAQSQ74L915:3AAJC4I4FH0A71FI02Z5R9FSQ9LZJM",1474877305765,13,1483,18,361,"Less than half","0","English",NA,7,3,487803
364,"A17PAQSQ74L915:3AAJC4I4FH0A71FI02Z5R9FSQ9LZJM",1474877306801,14,1035,18,226,"Less than half","0","English",NA,7,3,487803
365,"A17PAQSQ74L915:3AAJC4I4FH0A71FI02Z5R9FSQ9LZJM",1474877308837,15,2036,18,14,"Less than half","0","English",NA,7,3,487803
366,"A17PAQSQ74L915:3AAJC4I4FH0A71FI02Z5R9FSQ9LZJM",1474877310223,16,1384,18,431,"Less than half","0","English",NA,7,3,487803
367,"A17PAQSQ74L915:3AAJC4I4FH0A71FI02Z5R9FSQ9LZJM",1474877311314,17,1089,18,257,"Less than half","1","English",NA,7,3,487803
368,"A17PAQSQ74L915:3AAJC4I4FH0A71FI02Z5R9FSQ9LZJM",1474877312114,18,799,18,18,"Less than half","0","English",NA,7,3,487803
369,"A17PAQSQ74L915:3AAJC4I4FH0A71FI02Z5R9FSQ9LZJM",1474877314417,19,2302,14,18,"Less than half","1","English",NA,7,3,487803
370,"A17PAQSQ74L915:3AAJC4I4FH0A71FI02Z5R9FSQ9LZJM",1474877315684,20,1265,14,252,"Less than half","1","English",NA,7,3,487803
371,"A17PAQSQ74L915:3AAJC4I4FH0A71FI02Z5R9FSQ9LZJM",1474877316735,21,1049,14,406,"Less than half","0","English",NA,7,3,487803
372,"A17PAQSQ74L915:3AAJC4I4FH0A71FI02Z5R9FSQ9LZJM",1474877317672,22,935,14,423,"Less than half","1","English",NA,7,3,487803
373,"A17PAQSQ74L915:3AAJC4I4FH0A71FI02Z5R9FSQ9LZJM",1474877319464,23,1790,14,14,"Less than half","0","English",NA,7,3,487803
374,"A17PAQSQ74L915:3AAJC4I4FH0A71FI02Z5R9FSQ9LZJM",1474877320298,24,833,14,416,"Less than half","1","English",NA,7,3,487803
375,"A17PAQSQ74L915:3AAJC4I4FH0A71FI02Z5R9FSQ9LZJM",1474877321900,25,1602,95,14,"Less than half","0","English",NA,7,3,487803
376,"A17PAQSQ74L915:3AAJC4I4FH0A71FI02Z5R9FSQ9LZJM",1474877324038,26,2136,95,79,"Less than half","0","English",NA,7,3,487803
377,"A17PAQSQ74L915:3AAJC4I4FH0A71FI02Z5R9FSQ9LZJM",1474877326182,27,2143,106,95,"Less than half","0","English",NA,7,3,487803
378,"A17PAQSQ74L915:3AAJC4I4FH0A71FI02Z5R9FSQ9LZJM",1474877329367,28,3184,117,106,"Less than half","0","English",NA,7,3,487803
379,"A17PAQSQ74L915:3AAJC4I4FH0A71FI02Z5R9FSQ9LZJM",1474877332413,29,3045,117,268,"Less than half","0","English",NA,7,3,487803
380,"A17PAQSQ74L915:3AAJC4I4FH0A71FI02Z5R9FSQ9LZJM",1474877333782,30,1367,117,370,"Less than half","1","English",NA,7,3,487803
381,"A17PAQSQ74L915:3AAJC4I4FH0A71FI02Z5R9FSQ9LZJM",1474877335703,31,1919,117,388,"Less than half","1","English",NA,7,3,487803
382,"A17PAQSQ74L915:3AAJC4I4FH0A71FI02Z5R9FSQ9LZJM",1474877337514,32,1809,117,387,"Less than half","0","English",NA,7,3,487803
383,"A17PAQSQ74L915:3AAJC4I4FH0A71FI02Z5R9FSQ9LZJM",1474877338655,33,1140,117,425,"Less than half","0","English",NA,7,3,487803
384,"A17PAQSQ74L915:3AAJC4I4FH0A71FI02Z5R9FSQ9LZJM",1474877340344,34,1685,109,117,"Less than half","0","English",NA,7,3,487803
385,"A17PAQSQ74L915:3AAJC4I4FH0A71FI02Z5R9FSQ9LZJM",1474877342578,35,2233,109,165,"Less than half","1","English",NA,7,3,487803
386,"A17PAQSQ74L915:3AAJC4I4FH0A71FI02Z5R9FSQ9LZJM",1474877344110,36,1531,27,109,"Less than half","0","English",NA,7,3,487803
387,"A17PAQSQ74L915:3AAJC4I4FH0A71FI02Z5R9FSQ9LZJM",1474877345828,37,1717,27,233,"Less than half","0","English",NA,7,3,487803
388,"A17PAQSQ74L915:3AAJC4I4FH0A71FI02Z5R9FSQ9LZJM",1474877347144,38,1316,27,32,"Less than half","0","English",NA,7,3,487803
389,"A17PAQSQ74L915:3AAJC4I4FH0A71FI02Z5R9FSQ9LZJM",1474877348814,39,1669,45,27,"Less than half","1","English",NA,7,3,487803
390,"A17PAQSQ74L915:3AAJC4I4FH0A71FI02Z5R9FSQ9LZJM",1474877350304,40,1489,45,29,"Less than half","1","English",NA,7,3,487803
391,"A17PAQSQ74L915:3AAJC4I4FH0A71FI02Z5R9FSQ9LZJM",1474877352002,41,1697,45,59,"Less than half","0","English",NA,7,3,487803
392,"A17PAQSQ74L915:3AAJC4I4FH0A71FI02Z5R9FSQ9LZJM",1474877353548,42,1545,45,335,"Less than half","0","English",NA,7,3,487803
393,"A17PAQSQ74L915:3AAJC4I4FH0A71FI02Z5R9FSQ9LZJM",1474877354988,43,1439,45,49,"Less than half","1","English",NA,7,3,487803
394,"A17PAQSQ74L915:3AAJC4I4FH0A71FI02Z5R9FSQ9LZJM",1474877356246,44,1256,43,45,"Less than half","1","English",NA,7,3,487803
395,"A17PAQSQ74L915:3AAJC4I4FH0A71FI02Z5R9FSQ9LZJM",1474877357994,45,1747,43,55,"Less than half","1","English",NA,7,3,487803
396,"A17PAQSQ74L915:3AAJC4I4FH0A71FI02Z5R9FSQ9LZJM",1474877359276,46,1281,43,287,"Less than half","0","English",NA,7,3,487803
397,"A17PAQSQ74L915:3AAJC4I4FH0A71FI02Z5R9FSQ9LZJM",1474877360827,47,1550,34,43,"Less than half","0","English",NA,7,3,487803
398,"A17PAQSQ74L915:3AAJC4I4FH0A71FI02Z5R9FSQ9LZJM",1474877362331,48,1504,34,20,"Less than half","0","English",NA,7,3,487803
399,"A17PAQSQ74L915:3AAJC4I4FH0A71FI02Z5R9FSQ9LZJM",1474877363664,49,1333,107,34,"Less than half","1","English",NA,7,3,487803
400,"A17PAQSQ74L915:3AAJC4I4FH0A71FI02Z5R9FSQ9LZJM",1474877364801,50,1136,107,429,"Less than half","0","English",NA,7,3,487803
411,"A1A3TGZ7DKJWRW:3OF2M9AATHW5ILL0INZHSOF55YLZKL",1474876918370,11,1519,345,118,"The majority","0","english",NA,4,9,353017
412,"A1A3TGZ7DKJWRW:3OF2M9AATHW5ILL0INZHSOF55YLZKL",1474876920626,12,2255,409,345,"The majority","1","english",NA,4,9,353017
413,"A1A3TGZ7DKJWRW:3OF2M9AATHW5ILL0INZHSOF55YLZKL",1474876922234,13,1607,409,420,"The majority","1","english",NA,4,9,353017
414,"A1A3TGZ7DKJWRW:3OF2M9AATHW5ILL0INZHSOF55YLZKL",1474876924218,14,1984,411,409,"The majority","1","english",NA,4,9,353017
415,"A1A3TGZ7DKJWRW:3OF2M9AATHW5ILL0INZHSOF55YLZKL",1474876925550,15,1331,411,431,"The majority","1","english",NA,4,9,353017
416,"A1A3TGZ7DKJWRW:3OF2M9AATHW5ILL0INZHSOF55YLZKL",1474876927938,16,2388,411,28,"The majority","0","english",NA,4,9,353017
417,"A1A3TGZ7DKJWRW:3OF2M9AATHW5ILL0INZHSOF55YLZKL",1474876929354,17,1416,411,405,"The majority","1","english",NA,4,9,353017
418,"A1A3TGZ7DKJWRW:3OF2M9AATHW5ILL0INZHSOF55YLZKL",1474876930747,18,1393,411,419,"The majority","1","english",NA,4,9,353017
419,"A1A3TGZ7DKJWRW:3OF2M9AATHW5ILL0INZHSOF55YLZKL",1474876933122,19,2375,407,411,"The majority","1","english",NA,4,9,353017
420,"A1A3TGZ7DKJWRW:3OF2M9AATHW5ILL0INZHSOF55YLZKL",1474876934922,20,1799,407,214,"The majority","0","english",NA,4,9,353017
421,"A1A3TGZ7DKJWRW:3OF2M9AATHW5ILL0INZHSOF55YLZKL",1474876936307,21,1384,421,407,"The majority","1","english",NA,4,9,353017
422,"A1A3TGZ7DKJWRW:3OF2M9AATHW5ILL0INZHSOF55YLZKL",1474876937730,22,1423,421,2,"The majority","0","english",NA,4,9,353017
423,"A1A3TGZ7DKJWRW:3OF2M9AATHW5ILL0INZHSOF55YLZKL",1474876939714,23,1983,421,423,"The majority","0","english",NA,4,9,353017
424,"A1A3TGZ7DKJWRW:3OF2M9AATHW5ILL0INZHSOF55YLZKL",1474876941266,24,1551,421,125,"The majority","1","english",NA,4,9,353017
425,"A1A3TGZ7DKJWRW:3OF2M9AATHW5ILL0INZHSOF55YLZKL",1474876943066,25,1799,416,421,"The majority","1","english",NA,4,9,353017
426,"A1A3TGZ7DKJWRW:3OF2M9AATHW5ILL0INZHSOF55YLZKL",1474876945658,26,2592,416,399,"The majority","1","english",NA,4,9,353017
427,"A1A3TGZ7DKJWRW:3OF2M9AATHW5ILL0INZHSOF55YLZKL",1474876947882,27,2223,415,416,"The majority","1","english",NA,4,9,353017
428,"A1A3TGZ7DKJWRW:3OF2M9AATHW5ILL0INZHSOF55YLZKL",1474876949482,28,1599,406,415,"The majority","1","english",NA,4,9,353017
429,"A1A3TGZ7DKJWRW:3OF2M9AATHW5ILL0INZHSOF55YLZKL",1474876950924,29,1441,406,399,"The majority","1","english",NA,4,9,353017
430,"A1A3TGZ7DKJWRW:3OF2M9AATHW5ILL0INZHSOF55YLZKL",1474876953994,30,3070,406,411,"The majority","1","english",NA,4,9,353017
431,"A1A3TGZ7DKJWRW:3OF2M9AATHW5ILL0INZHSOF55YLZKL",1474876955242,31,1247,401,406,"The majority","1","english",NA,4,9,353017
432,"A1A3TGZ7DKJWRW:3OF2M9AATHW5ILL0INZHSOF55YLZKL",1474876956658,32,1415,401,54,"The majority","1","english",NA,4,9,353017
433,"A1A3TGZ7DKJWRW:3OF2M9AATHW5ILL0INZHSOF55YLZKL",1474876957922,33,1264,401,402,"The majority","1","english",NA,4,9,353017
434,"A1A3TGZ7DKJWRW:3OF2M9AATHW5ILL0INZHSOF55YLZKL",1474876959250,34,1327,406,401,"The majority","1","english",NA,4,9,353017
435,"A1A3TGZ7DKJWRW:3OF2M9AATHW5ILL0INZHSOF55YLZKL",1474876960842,35,1591,359,406,"The majority","1","english",NA,4,9,353017
436,"A1A3TGZ7DKJWRW:3OF2M9AATHW5ILL0INZHSOF55YLZKL",1474876962090,36,1247,389,359,"The majority","1","english",NA,4,9,353017
437,"A1A3TGZ7DKJWRW:3OF2M9AATHW5ILL0INZHSOF55YLZKL",1474876963946,37,1855,389,101,"The majority","0","english",NA,4,9,353017
438,"A1A3TGZ7DKJWRW:3OF2M9AATHW5ILL0INZHSOF55YLZKL",1474876965354,38,1407,388,389,"The majority","0","english",NA,4,9,353017
439,"A1A3TGZ7DKJWRW:3OF2M9AATHW5ILL0INZHSOF55YLZKL",1474876966434,39,1079,388,21,"The majority","0","english",NA,4,9,353017
440,"A1A3TGZ7DKJWRW:3OF2M9AATHW5ILL0INZHSOF55YLZKL",1474876967754,40,1320,380,388,"The majority","0","english",NA,4,9,353017
441,"A1A3TGZ7DKJWRW:3OF2M9AATHW5ILL0INZHSOF55YLZKL",1474876968874,41,1120,393,380,"The majority","0","english",NA,4,9,353017
442,"A1A3TGZ7DKJWRW:3OF2M9AATHW5ILL0INZHSOF55YLZKL",1474876970386,42,1511,410,393,"The majority","1","english",NA,4,9,353017
443,"A1A3TGZ7DKJWRW:3OF2M9AATHW5ILL0INZHSOF55YLZKL",1474876971610,43,1223,410,274,"The majority","1","english",NA,4,9,353017
444,"A1A3TGZ7DKJWRW:3OF2M9AATHW5ILL0INZHSOF55YLZKL",1474876972874,44,1264,410,401,"The majority","1","english",NA,4,9,353017
445,"A1A3TGZ7DKJWRW:3OF2M9AATHW5ILL0INZHSOF55YLZKL",1474876974834,45,1959,395,410,"The majority","1","english",NA,4,9,353017
446,"A1A3TGZ7DKJWRW:3OF2M9AATHW5ILL0INZHSOF55YLZKL",1474876976314,46,1479,397,395,"The majority","1","english",NA,4,9,353017
447,"A1A3TGZ7DKJWRW:3OF2M9AATHW5ILL0INZHSOF55YLZKL",1474876977986,47,1671,397,402,"The majority","1","english",NA,4,9,353017
448,"A1A3TGZ7DKJWRW:3OF2M9AATHW5ILL0INZHSOF55YLZKL",1474876980418,48,2431,397,33,"The majority","0","english",NA,4,9,353017
449,"A1A3TGZ7DKJWRW:3OF2M9AATHW5ILL0INZHSOF55YLZKL",1474876983426,49,3007,397,161,"The majority","1","english",NA,4,9,353017
450,"A1A3TGZ7DKJWRW:3OF2M9AATHW5ILL0INZHSOF55YLZKL",1474876985866,50,2439,379,397,"The majority","0","english",NA,4,9,353017
461,"A1A3TGZ7DKJWRW:3OF2M9AATHW5ILL0INZHSOF55YLZKL",1474877012898,11,1791,343,334,"About half","1","english",NA,4,9,353017
462,"A1A3TGZ7DKJWRW:3OF2M9AATHW5ILL0INZHSOF55YLZKL",1474877014178,12,1279,323,343,"About half","1","english",NA,4,9,353017
463,"A1A3TGZ7DKJWRW:3OF2M9AATHW5ILL0INZHSOF55YLZKL",1474877015986,13,1807,306,323,"About half","1","english",NA,4,9,353017
464,"A1A3TGZ7DKJWRW:3OF2M9AATHW5ILL0INZHSOF55YLZKL",1474877017490,14,1504,306,294,"About half","1","english",NA,4,9,353017
465,"A1A3TGZ7DKJWRW:3OF2M9AATHW5ILL0INZHSOF55YLZKL",1474877018874,15,1384,299,306,"About half","1","english",NA,4,9,353017
466,"A1A3TGZ7DKJWRW:3OF2M9AATHW5ILL0INZHSOF55YLZKL",1474877020258,16,1383,299,228,"About half","1","english",NA,4,9,353017
467,"A1A3TGZ7DKJWRW:3OF2M9AATHW5ILL0INZHSOF55YLZKL",1474877021554,17,1295,232,299,"About half","1","english",NA,4,9,353017
468,"A1A3TGZ7DKJWRW:3OF2M9AATHW5ILL0INZHSOF55YLZKL",1474877022970,18,1415,246,232,"About half","1","english",NA,4,9,353017
469,"A1A3TGZ7DKJWRW:3OF2M9AATHW5ILL0INZHSOF55YLZKL",1474877024835,19,1864,246,263,"About half","1","english",NA,4,9,353017
470,"A1A3TGZ7DKJWRW:3OF2M9AATHW5ILL0INZHSOF55YLZKL",1474877026274,20,1439,246,228,"About half","1","english",NA,4,9,353017
471,"A1A3TGZ7DKJWRW:3OF2M9AATHW5ILL0INZHSOF55YLZKL",1474877028018,21,1744,246,369,"About half","1","english",NA,4,9,353017
472,"A1A3TGZ7DKJWRW:3OF2M9AATHW5ILL0INZHSOF55YLZKL",1474877029554,22,1536,185,246,"About half","1","english",NA,4,9,353017
473,"A1A3TGZ7DKJWRW:3OF2M9AATHW5ILL0INZHSOF55YLZKL",1474877031066,23,1511,193,185,"About half","1","english",NA,4,9,353017
474,"A1A3TGZ7DKJWRW:3OF2M9AATHW5ILL0INZHSOF55YLZKL",1474877032482,24,1415,193,391,"About half","1","english",NA,4,9,353017
475,"A1A3TGZ7DKJWRW:3OF2M9AATHW5ILL0INZHSOF55YLZKL",1474877033834,25,1352,193,188,"About half","1","english",NA,4,9,353017
476,"A1A3TGZ7DKJWRW:3OF2M9AATHW5ILL0INZHSOF55YLZKL",1474877035298,26,1464,335,193,"About half","1","english",NA,4,9,353017
477,"A1A3TGZ7DKJWRW:3OF2M9AATHW5ILL0INZHSOF55YLZKL",1474877037010,27,1712,335,356,"About half","1","english",NA,4,9,353017
478,"A1A3TGZ7DKJWRW:3OF2M9AATHW5ILL0INZHSOF55YLZKL",1474877038346,28,1336,337,335,"About half","1","english",NA,4,9,353017
479,"A1A3TGZ7DKJWRW:3OF2M9AATHW5ILL0INZHSOF55YLZKL",1474877039826,29,1480,337,337,"About half","1","english",NA,4,9,353017
480,"A1A3TGZ7DKJWRW:3OF2M9AATHW5ILL0INZHSOF55YLZKL",1474877041314,30,1488,337,330,"About half","1","english",NA,4,9,353017
481,"A1A3TGZ7DKJWRW:3OF2M9AATHW5ILL0INZHSOF55YLZKL",1474877042707,31,1392,351,337,"About half","1","english",NA,4,9,353017
482,"A1A3TGZ7DKJWRW:3OF2M9AATHW5ILL0INZHSOF55YLZKL",1474877043842,32,1134,351,347,"About half","1","english",NA,4,9,353017
483,"A1A3TGZ7DKJWRW:3OF2M9AATHW5ILL0INZHSOF55YLZKL",1474877045139,33,1296,316,351,"About half","1","english",NA,4,9,353017
484,"A1A3TGZ7DKJWRW:3OF2M9AATHW5ILL0INZHSOF55YLZKL",1474877048250,34,3110,316,333,"About half","1","english",NA,4,9,353017
485,"A1A3TGZ7DKJWRW:3OF2M9AATHW5ILL0INZHSOF55YLZKL",1474877049890,35,1639,316,165,"About half","1","english",NA,4,9,353017
486,"A1A3TGZ7DKJWRW:3OF2M9AATHW5ILL0INZHSOF55YLZKL",1474877051738,36,1848,299,316,"About half","1","english",NA,4,9,353017
487,"A1A3TGZ7DKJWRW:3OF2M9AATHW5ILL0INZHSOF55YLZKL",1474877053514,37,1775,285,299,"About half","1","english",NA,4,9,353017
488,"A1A3TGZ7DKJWRW:3OF2M9AATHW5ILL0INZHSOF55YLZKL",1474877055098,38,1583,285,286,"About half","1","english",NA,4,9,353017
489,"A1A3TGZ7DKJWRW:3OF2M9AATHW5ILL0INZHSOF55YLZKL",1474877056826,39,1727,190,285,"About half","1","english",NA,4,9,353017
490,"A1A3TGZ7DKJWRW:3OF2M9AATHW5ILL0INZHSOF55YLZKL",1474877059027,40,2200,230,190,"About half","0","english",NA,4,9,353017
491,"A1A3TGZ7DKJWRW:3OF2M9AATHW5ILL0INZHSOF55YLZKL",1474877060538,41,1511,230,397,"About half","0","english",NA,4,9,353017
492,"A1A3TGZ7DKJWRW:3OF2M9AATHW5ILL0INZHSOF55YLZKL",1474877062490,42,1951,230,219,"About half","1","english",NA,4,9,353017
493,"A1A3TGZ7DKJWRW:3OF2M9AATHW5ILL0INZHSOF55YLZKL",1474877063850,43,1359,230,246,"About half","1","english",NA,4,9,353017
494,"A1A3TGZ7DKJWRW:3OF2M9AATHW5ILL0INZHSOF55YLZKL",1474877065562,44,1712,230,244,"About half","1","english",NA,4,9,353017
495,"A1A3TGZ7DKJWRW:3OF2M9AATHW5ILL0INZHSOF55YLZKL",1474877066922,45,1359,230,386,"About half","1","english",NA,4,9,353017
496,"A1A3TGZ7DKJWRW:3OF2M9AATHW5ILL0INZHSOF55YLZKL",1474877068330,46,1407,222,230,"About half","1","english",NA,4,9,353017
497,"A1A3TGZ7DKJWRW:3OF2M9AATHW5ILL0INZHSOF55YLZKL",1474877069827,47,1496,232,222,"About half","1","english",NA,4,9,353017
498,"A1A3TGZ7DKJWRW:3OF2M9AATHW5ILL0INZHSOF55YLZKL",1474877070986,48,1159,220,232,"About half","1","english",NA,4,9,353017
499,"A1A3TGZ7DKJWRW:3OF2M9AATHW5ILL0INZHSOF55YLZKL",1474877072698,49,1711,220,386,"About half","0","english",NA,4,9,353017
500,"A1A3TGZ7DKJWRW:3OF2M9AATHW5ILL0INZHSOF55YLZKL",1474877074378,50,1679,220,200,"About half","0","english",NA,4,9,353017
511,"A1A3TGZ7DKJWRW:3OF2M9AATHW5ILL0INZHSOF55YLZKL",1474877095442,11,1407,15,4,"Very few","1","english",NA,4,9,353017
512,"A1A3TGZ7DKJWRW:3OF2M9AATHW5ILL0INZHSOF55YLZKL",1474877096914,12,1471,15,35,"Very few","1","english",NA,4,9,353017
513,"A1A3TGZ7DKJWRW:3OF2M9AATHW5ILL0INZHSOF55YLZKL",1474877098434,13,1519,1,15,"Very few","1","english",NA,4,9,353017
514,"A1A3TGZ7DKJWRW:3OF2M9AATHW5ILL0INZHSOF55YLZKL",1474877101386,14,2952,1,1,"Very few","1","english",NA,4,9,353017
515,"A1A3TGZ7DKJWRW:3OF2M9AATHW5ILL0INZHSOF55YLZKL",1474877102722,15,1335,1,347,"Very few","0","english",NA,4,9,353017
516,"A1A3TGZ7DKJWRW:3OF2M9AATHW5ILL0INZHSOF55YLZKL",1474877104100,16,1378,1,425,"Very few","0","english",NA,4,9,353017
517,"A1A3TGZ7DKJWRW:3OF2M9AATHW5ILL0INZHSOF55YLZKL",1474877105898,17,1797,1,416,"Very few","1","english",NA,4,9,353017
518,"A1A3TGZ7DKJWRW:3OF2M9AATHW5ILL0INZHSOF55YLZKL",1474877107754,18,1855,1,415,"Very few","1","english",NA,4,9,353017
519,"A1A3TGZ7DKJWRW:3OF2M9AATHW5ILL0INZHSOF55YLZKL",1474877109026,19,1271,1,391,"Very few","0","english",NA,4,9,353017
520,"A1A3TGZ7DKJWRW:3OF2M9AATHW5ILL0INZHSOF55YLZKL",1474877110389,20,1362,1,251,"Very few","0","english",NA,4,9,353017
521,"A1A3TGZ7DKJWRW:3OF2M9AATHW5ILL0INZHSOF55YLZKL",1474877111850,21,1461,1,200,"Very few","0","english",NA,4,9,353017
522,"A1A3TGZ7DKJWRW:3OF2M9AATHW5ILL0INZHSOF55YLZKL",1474877113602,22,1751,5,1,"Very few","0","english",NA,4,9,353017
523,"A1A3TGZ7DKJWRW:3OF2M9AATHW5ILL0INZHSOF55YLZKL",1474877115234,23,1632,5,232,"Very few","0","english",NA,4,9,353017
524,"A1A3TGZ7DKJWRW:3OF2M9AATHW5ILL0INZHSOF55YLZKL",1474877116922,24,1687,5,89,"Very few","1","english",NA,4,9,353017
525,"A1A3TGZ7DKJWRW:3OF2M9AATHW5ILL0INZHSOF55YLZKL",1474877118378,25,1455,5,230,"Very few","1","english",NA,4,9,353017
526,"A1A3TGZ7DKJWRW:3OF2M9AATHW5ILL0INZHSOF55YLZKL",1474877120346,26,1967,5,143,"Very few","1","english",NA,4,9,353017
527,"A1A3TGZ7DKJWRW:3OF2M9AATHW5ILL0INZHSOF55YLZKL",1474877122234,27,1888,5,18,"Very few","0","english",NA,4,9,353017
528,"A1A3TGZ7DKJWRW:3OF2M9AATHW5ILL0INZHSOF55YLZKL",1474877123714,28,1479,5,15,"Very few","0","english",NA,4,9,353017
529,"A1A3TGZ7DKJWRW:3OF2M9AATHW5ILL0INZHSOF55YLZKL",1474877125946,29,2231,5,160,"Very few","0","english",NA,4,9,353017
530,"A1A3TGZ7DKJWRW:3OF2M9AATHW5ILL0INZHSOF55YLZKL",1474877127594,30,1647,5,428,"Very few","1","english",NA,4,9,353017
531,"A1A3TGZ7DKJWRW:3OF2M9AATHW5ILL0INZHSOF55YLZKL",1474877129186,31,1590,5,199,"Very few","0","english",NA,4,9,353017
532,"A1A3TGZ7DKJWRW:3OF2M9AATHW5ILL0INZHSOF55YLZKL",1474877130955,32,1768,5,245,"Very few","1","english",NA,4,9,353017
533,"A1A3TGZ7DKJWRW:3OF2M9AATHW5ILL0INZHSOF55YLZKL",1474877132026,33,1071,5,413,"Very few","0","english",NA,4,9,353017
534,"A1A3TGZ7DKJWRW:3OF2M9AATHW5ILL0INZHSOF55YLZKL",1474877133714,34,1687,5,152,"Very few","1","english",NA,4,9,353017
535,"A1A3TGZ7DKJWRW:3OF2M9AATHW5ILL0INZHSOF55YLZKL",1474877135738,35,2024,5,21,"Very few","1","english",NA,4,9,353017
536,"A1A3TGZ7DKJWRW:3OF2M9AATHW5ILL0INZHSOF55YLZKL",1474877137090,36,1352,5,432,"Very few","1","english",NA,4,9,353017
537,"A1A3TGZ7DKJWRW:3OF2M9AATHW5ILL0INZHSOF55YLZKL",1474877139107,37,2016,97,5,"Very few","0","english",NA,4,9,353017
538,"A1A3TGZ7DKJWRW:3OF2M9AATHW5ILL0INZHSOF55YLZKL",1474877141474,38,2367,97,87,"Very few","0","english",NA,4,9,353017
539,"A1A3TGZ7DKJWRW:3OF2M9AATHW5ILL0INZHSOF55YLZKL",1474877143114,39,1639,97,118,"Very few","0","english",NA,4,9,353017
540,"A1A3TGZ7DKJWRW:3OF2M9AATHW5ILL0INZHSOF55YLZKL",1474877145571,40,2457,97,389,"Very few","0","english",NA,4,9,353017
541,"A1A3TGZ7DKJWRW:3OF2M9AATHW5ILL0INZHSOF55YLZKL",1474877147126,41,1554,102,97,"Very few","1","english",NA,4,9,353017
542,"A1A3TGZ7DKJWRW:3OF2M9AATHW5ILL0INZHSOF55YLZKL",1474877148626,42,1500,84,102,"Very few","1","english",NA,4,9,353017
543,"A1A3TGZ7DKJWRW:3OF2M9AATHW5ILL0INZHSOF55YLZKL",1474877150698,43,2071,84,399,"Very few","1","english",NA,4,9,353017
544,"A1A3TGZ7DKJWRW:3OF2M9AATHW5ILL0INZHSOF55YLZKL",1474877152122,44,1423,84,77,"Very few","1","english",NA,4,9,353017
545,"A1A3TGZ7DKJWRW:3OF2M9AATHW5ILL0INZHSOF55YLZKL",1474877153650,45,1527,128,84,"Very few","1","english",NA,4,9,353017
546,"A1A3TGZ7DKJWRW:3OF2M9AATHW5ILL0INZHSOF55YLZKL",1474877155218,46,1568,113,128,"Very few","1","english",NA,4,9,353017
547,"A1A3TGZ7DKJWRW:3OF2M9AATHW5ILL0INZHSOF55YLZKL",1474877156570,47,1351,113,116,"Very few","1","english",NA,4,9,353017
548,"A1A3TGZ7DKJWRW:3OF2M9AATHW5ILL0INZHSOF55YLZKL",1474877158226,48,1656,129,113,"Very few","1","english",NA,4,9,353017
549,"A1A3TGZ7DKJWRW:3OF2M9AATHW5ILL0INZHSOF55YLZKL",1474877160898,49,2671,138,129,"Very few","1","english",NA,4,9,353017
550,"A1A3TGZ7DKJWRW:3OF2M9AATHW5ILL0INZHSOF55YLZKL",1474877162306,50,1408,132,138,"Very few","1","english",NA,4,9,353017
561,"A1A3TGZ7DKJWRW:3OF2M9AATHW5ILL0INZHSOF55YLZKL",1474877183819,11,1631,62,80,"Few","0","english",NA,4,9,353017
562,"A1A3TGZ7DKJWRW:3OF2M9AATHW5ILL0INZHSOF55YLZKL",1474877185363,12,1543,62,77,"Few","1","english",NA,4,9,353017
563,"A1A3TGZ7DKJWRW:3OF2M9AATHW5ILL0INZHSOF55YLZKL",1474877186923,13,1559,72,62,"Few","1","english",NA,4,9,353017
564,"A1A3TGZ7DKJWRW:3OF2M9AATHW5ILL0INZHSOF55YLZKL",1474877188747,14,1823,72,268,"Few","1","english",NA,4,9,353017
565,"A1A3TGZ7DKJWRW:3OF2M9AATHW5ILL0INZHSOF55YLZKL",1474877190235,15,1488,67,72,"Few","1","english",NA,4,9,353017
566,"A1A3TGZ7DKJWRW:3OF2M9AATHW5ILL0INZHSOF55YLZKL",1474877191770,16,1534,67,334,"Few","1","english",NA,4,9,353017
567,"A1A3TGZ7DKJWRW:3OF2M9AATHW5ILL0INZHSOF55YLZKL",1474877193773,17,2003,67,87,"Few","1","english",NA,4,9,353017
568,"A1A3TGZ7DKJWRW:3OF2M9AATHW5ILL0INZHSOF55YLZKL",1474877195227,18,1454,67,55,"Few","0","english",NA,4,9,353017
569,"A1A3TGZ7DKJWRW:3OF2M9AATHW5ILL0INZHSOF55YLZKL",1474877196507,19,1279,58,67,"Few","0","english",NA,4,9,353017
570,"A1A3TGZ7DKJWRW:3OF2M9AATHW5ILL0INZHSOF55YLZKL",1474877198035,20,1528,58,65,"Few","0","english",NA,4,9,353017
571,"A1A3TGZ7DKJWRW:3OF2M9AATHW5ILL0INZHSOF55YLZKL",1474877200163,21,2128,58,116,"Few","0","english",NA,4,9,353017
572,"A1A3TGZ7DKJWRW:3OF2M9AATHW5ILL0INZHSOF55YLZKL",1474877201843,22,1679,42,58,"Few","1","english",NA,4,9,353017
573,"A1A3TGZ7DKJWRW:3OF2M9AATHW5ILL0INZHSOF55YLZKL",1474877204003,23,2160,21,42,"Few","0","english",NA,4,9,353017
574,"A1A3TGZ7DKJWRW:3OF2M9AATHW5ILL0INZHSOF55YLZKL",1474877205555,24,1551,21,264,"Few","1","english",NA,4,9,353017
575,"A1A3TGZ7DKJWRW:3OF2M9AATHW5ILL0INZHSOF55YLZKL",1474877207283,25,1727,14,21,"Few","0","english",NA,4,9,353017
576,"A1A3TGZ7DKJWRW:3OF2M9AATHW5ILL0INZHSOF55YLZKL",1474877210395,26,3111,14,165,"Few","0","english",NA,4,9,353017
577,"A1A3TGZ7DKJWRW:3OF2M9AATHW5ILL0INZHSOF55YLZKL",1474877211771,27,1376,14,203,"Few","0","english",NA,4,9,353017
578,"A1A3TGZ7DKJWRW:3OF2M9AATHW5ILL0INZHSOF55YLZKL",1474877213771,28,2000,14,76,"Few","1","english",NA,4,9,353017
579,"A1A3TGZ7DKJWRW:3OF2M9AATHW5ILL0INZHSOF55YLZKL",1474877215155,29,1384,15,14,"Few","0","english",NA,4,9,353017
580,"A1A3TGZ7DKJWRW:3OF2M9AATHW5ILL0INZHSOF55YLZKL",1474877216691,30,1536,15,112,"Few","0","english",NA,4,9,353017
581,"A1A3TGZ7DKJWRW:3OF2M9AATHW5ILL0INZHSOF55YLZKL",1474877218219,31,1527,15,18,"Few","0","english",NA,4,9,353017
582,"A1A3TGZ7DKJWRW:3OF2M9AATHW5ILL0INZHSOF55YLZKL",1474877219659,32,1440,15,29,"Few","0","english",NA,4,9,353017
583,"A1A3TGZ7DKJWRW:3OF2M9AATHW5ILL0INZHSOF55YLZKL",1474877221091,33,1432,15,84,"Few","0","english",NA,4,9,353017
584,"A1A3TGZ7DKJWRW:3OF2M9AATHW5ILL0INZHSOF55YLZKL",1474877222315,34,1223,30,15,"Few","0","english",NA,4,9,353017
585,"A1A3TGZ7DKJWRW:3OF2M9AATHW5ILL0INZHSOF55YLZKL",1474877223803,35,1487,24,30,"Few","0","english",NA,4,9,353017
586,"A1A3TGZ7DKJWRW:3OF2M9AATHW5ILL0INZHSOF55YLZKL",1474877225347,36,1543,24,9,"Few","0","english",NA,4,9,353017
587,"A1A3TGZ7DKJWRW:3OF2M9AATHW5ILL0INZHSOF55YLZKL",1474877226683,37,1335,24,33,"Few","0","english",NA,4,9,353017
588,"A1A3TGZ7DKJWRW:3OF2M9AATHW5ILL0INZHSOF55YLZKL",1474877228386,38,1702,24,314,"Few","0","english",NA,4,9,353017
589,"A1A3TGZ7DKJWRW:3OF2M9AATHW5ILL0INZHSOF55YLZKL",1474877229747,39,1361,24,34,"Few","0","english",NA,4,9,353017
590,"A1A3TGZ7DKJWRW:3OF2M9AATHW5ILL0INZHSOF55YLZKL",1474877231091,40,1344,24,29,"Few","0","english",NA,4,9,353017
591,"A1A3TGZ7DKJWRW:3OF2M9AATHW5ILL0INZHSOF55YLZKL",1474877233163,41,2071,24,78,"Few","0","english",NA,4,9,353017
592,"A1A3TGZ7DKJWRW:3OF2M9AATHW5ILL0INZHSOF55YLZKL",1474877234779,42,1616,24,358,"Few","0","english",NA,4,9,353017
593,"A1A3TGZ7DKJWRW:3OF2M9AATHW5ILL0INZHSOF55YLZKL",1474877236563,43,1783,24,24,"Few","0","english",NA,4,9,353017
594,"A1A3TGZ7DKJWRW:3OF2M9AATHW5ILL0INZHSOF55YLZKL",1474877238443,44,1879,8,24,"Few","0","english",NA,4,9,353017
595,"A1A3TGZ7DKJWRW:3OF2M9AATHW5ILL0INZHSOF55YLZKL",1474877240139,45,1696,16,8,"Few","0","english",NA,4,9,353017
596,"A1A3TGZ7DKJWRW:3OF2M9AATHW5ILL0INZHSOF55YLZKL",1474877243301,46,3161,34,16,"Few","0","english",NA,4,9,353017
597,"A1A3TGZ7DKJWRW:3OF2M9AATHW5ILL0INZHSOF55YLZKL",1474877244715,47,1414,50,34,"Few","0","english",NA,4,9,353017
598,"A1A3TGZ7DKJWRW:3OF2M9AATHW5ILL0INZHSOF55YLZKL",1474877246019,48,1304,54,50,"Few","0","english",NA,4,9,353017
599,"A1A3TGZ7DKJWRW:3OF2M9AATHW5ILL0INZHSOF55YLZKL",1474877247475,49,1456,54,114,"Few","0","english",NA,4,9,353017
600,"A1A3TGZ7DKJWRW:3OF2M9AATHW5ILL0INZHSOF55YLZKL",1474877249243,50,1768,54,423,"Few","1","english",NA,4,9,353017
611,"A1CC9996A7KZDS:35BLDD71I75JYWFCHRDOUXQMLWSZV7",1474877198532,11,3077,96,10,"About half","0","English",NA,8,2,423225
612,"A1CC9996A7KZDS:35BLDD71I75JYWFCHRDOUXQMLWSZV7",1474877200607,12,2073,76,96,"About half","1","English",NA,8,2,423225
613,"A1CC9996A7KZDS:35BLDD71I75JYWFCHRDOUXQMLWSZV7",1474877204289,13,3680,76,187,"About half","1","English",NA,8,2,423225
614,"A1CC9996A7KZDS:35BLDD71I75JYWFCHRDOUXQMLWSZV7",1474877206705,14,2414,76,9,"About half","0","English",NA,8,2,423225
615,"A1CC9996A7KZDS:35BLDD71I75JYWFCHRDOUXQMLWSZV7",1474877208957,15,2250,76,53,"About half","1","English",NA,8,2,423225
616,"A1CC9996A7KZDS:35BLDD71I75JYWFCHRDOUXQMLWSZV7",1474877210836,16,1878,72,76,"About half","1","English",NA,8,2,423225
617,"A1CC9996A7KZDS:35BLDD71I75JYWFCHRDOUXQMLWSZV7",1474877212663,17,1825,84,72,"About half","1","English",NA,8,2,423225
618,"A1CC9996A7KZDS:35BLDD71I75JYWFCHRDOUXQMLWSZV7",1474877214846,18,2182,84,103,"About half","1","English",NA,8,2,423225
619,"A1CC9996A7KZDS:35BLDD71I75JYWFCHRDOUXQMLWSZV7",1474877216593,19,1745,115,84,"About half","0","English",NA,8,2,423225
620,"A1CC9996A7KZDS:35BLDD71I75JYWFCHRDOUXQMLWSZV7",1474877218424,20,1829,115,25,"About half","1","English",NA,8,2,423225
621,"A1CC9996A7KZDS:35BLDD71I75JYWFCHRDOUXQMLWSZV7",1474877221477,21,3051,113,115,"About half","0","English",NA,8,2,423225
622,"A1CC9996A7KZDS:35BLDD71I75JYWFCHRDOUXQMLWSZV7",1474877223685,22,2206,113,94,"About half","1","English",NA,8,2,423225
623,"A1CC9996A7KZDS:35BLDD71I75JYWFCHRDOUXQMLWSZV7",1474877226373,23,2687,113,103,"About half","1","English",NA,8,2,423225
624,"A1CC9996A7KZDS:35BLDD71I75JYWFCHRDOUXQMLWSZV7",1474877229009,24,2635,113,100,"About half","1","English",NA,8,2,423225
625,"A1CC9996A7KZDS:35BLDD71I75JYWFCHRDOUXQMLWSZV7",1474877231225,25,2215,113,106,"About half","1","English",NA,8,2,423225
626,"A1CC9996A7KZDS:35BLDD71I75JYWFCHRDOUXQMLWSZV7",1474877233179,26,1953,113,53,"About half","0","English",NA,8,2,423225
627,"A1CC9996A7KZDS:35BLDD71I75JYWFCHRDOUXQMLWSZV7",1474877235355,27,2174,113,107,"About half","1","English",NA,8,2,423225
628,"A1CC9996A7KZDS:35BLDD71I75JYWFCHRDOUXQMLWSZV7",1474877237150,28,1794,113,298,"About half","1","English",NA,8,2,423225
629,"A1CC9996A7KZDS:35BLDD71I75JYWFCHRDOUXQMLWSZV7",1474877238788,29,1637,121,113,"About half","1","English",NA,8,2,423225
630,"A1CC9996A7KZDS:35BLDD71I75JYWFCHRDOUXQMLWSZV7",1474877241417,30,2627,7,121,"About half","1","English",NA,8,2,423225
631,"A1CC9996A7KZDS:35BLDD71I75JYWFCHRDOUXQMLWSZV7",1474877241697,31,279,7,4,"About half","1","English",NA,8,2,423225
632,"A1CC9996A7KZDS:35BLDD71I75JYWFCHRDOUXQMLWSZV7",1474877248208,32,6510,432,7,"About half","1","English",NA,8,2,423225
633,"A1CC9996A7KZDS:35BLDD71I75JYWFCHRDOUXQMLWSZV7",1474877251465,33,3256,432,20,"About half","0","English",NA,8,2,423225
634,"A1CC9996A7KZDS:35BLDD71I75JYWFCHRDOUXQMLWSZV7",1474877253040,34,1573,432,6,"About half","1","English",NA,8,2,423225
635,"A1CC9996A7KZDS:35BLDD71I75JYWFCHRDOUXQMLWSZV7",1474877256838,35,3797,424,432,"About half","1","English",NA,8,2,423225
636,"A1CC9996A7KZDS:35BLDD71I75JYWFCHRDOUXQMLWSZV7",1474877259342,36,2502,384,424,"About half","1","English",NA,8,2,423225
637,"A1CC9996A7KZDS:35BLDD71I75JYWFCHRDOUXQMLWSZV7",1474877261726,37,2383,384,377,"About half","0","English",NA,8,2,423225
638,"A1CC9996A7KZDS:35BLDD71I75JYWFCHRDOUXQMLWSZV7",1474877266045,38,4318,118,384,"About half","1","English",NA,8,2,423225
639,"A1CC9996A7KZDS:35BLDD71I75JYWFCHRDOUXQMLWSZV7",1474877268293,39,2247,118,51,"About half","1","English",NA,8,2,423225
640,"A1CC9996A7KZDS:35BLDD71I75JYWFCHRDOUXQMLWSZV7",1474877271029,40,2735,138,118,"About half","1","English",NA,8,2,423225
641,"A1CC9996A7KZDS:35BLDD71I75JYWFCHRDOUXQMLWSZV7",1474877273129,41,2099,138,350,"About half","0","English",NA,8,2,423225
642,"A1CC9996A7KZDS:35BLDD71I75JYWFCHRDOUXQMLWSZV7",1474877276114,42,2984,138,298,"About half","0","English",NA,8,2,423225
643,"A1CC9996A7KZDS:35BLDD71I75JYWFCHRDOUXQMLWSZV7",1474877278462,43,2347,138,125,"About half","0","English",NA,8,2,423225
644,"A1CC9996A7KZDS:35BLDD71I75JYWFCHRDOUXQMLWSZV7",1474877281502,44,3039,134,138,"About half","1","English",NA,8,2,423225
645,"A1CC9996A7KZDS:35BLDD71I75JYWFCHRDOUXQMLWSZV7",1474877283413,45,1910,144,134,"About half","1","English",NA,8,2,423225
646,"A1CC9996A7KZDS:35BLDD71I75JYWFCHRDOUXQMLWSZV7",1474877285913,46,2498,144,243,"About half","0","English",NA,8,2,423225
647,"A1CC9996A7KZDS:35BLDD71I75JYWFCHRDOUXQMLWSZV7",1474877288289,47,2375,144,123,"About half","1","English",NA,8,2,423225
648,"A1CC9996A7KZDS:35BLDD71I75JYWFCHRDOUXQMLWSZV7",1474877290236,48,1946,144,358,"About half","1","English",NA,8,2,423225
649,"A1CC9996A7KZDS:35BLDD71I75JYWFCHRDOUXQMLWSZV7",1474877292933,49,2696,144,128,"About half","1","English",NA,8,2,423225
650,"A1CC9996A7KZDS:35BLDD71I75JYWFCHRDOUXQMLWSZV7",1474877294920,50,1986,153,144,"About half","1","English",NA,8,2,423225
661,"A1CC9996A7KZDS:35BLDD71I75JYWFCHRDOUXQMLWSZV7",1474877319461,11,2079,156,155,"Some","1","English",NA,8,2,423225
662,"A1CC9996A7KZDS:35BLDD71I75JYWFCHRDOUXQMLWSZV7",1474877320959,12,1497,235,156,"Some","1","English",NA,8,2,423225
663,"A1CC9996A7KZDS:35BLDD71I75JYWFCHRDOUXQMLWSZV7",1474877322722,13,1761,235,219,"Some","0","English",NA,8,2,423225
664,"A1CC9996A7KZDS:35BLDD71I75JYWFCHRDOUXQMLWSZV7",1474877324616,14,1893,237,235,"Some","1","English",NA,8,2,423225
665,"A1CC9996A7KZDS:35BLDD71I75JYWFCHRDOUXQMLWSZV7",1474877326595,15,1978,237,222,"Some","0","English",NA,8,2,423225
666,"A1CC9996A7KZDS:35BLDD71I75JYWFCHRDOUXQMLWSZV7",1474877328121,16,1525,237,236,"Some","1","English",NA,8,2,423225
667,"A1CC9996A7KZDS:35BLDD71I75JYWFCHRDOUXQMLWSZV7",1474877329548,17,1425,237,217,"Some","1","English",NA,8,2,423225
668,"A1CC9996A7KZDS:35BLDD71I75JYWFCHRDOUXQMLWSZV7",1474877331791,18,2242,230,237,"Some","1","English",NA,8,2,423225
669,"A1CC9996A7KZDS:35BLDD71I75JYWFCHRDOUXQMLWSZV7",1474877333454,19,1662,223,230,"Some","0","English",NA,8,2,423225
670,"A1CC9996A7KZDS:35BLDD71I75JYWFCHRDOUXQMLWSZV7",1474877335177,20,1722,223,235,"Some","1","English",NA,8,2,423225
671,"A1CC9996A7KZDS:35BLDD71I75JYWFCHRDOUXQMLWSZV7",1474877336727,21,1549,223,405,"Some","1","English",NA,8,2,423225
672,"A1CC9996A7KZDS:35BLDD71I75JYWFCHRDOUXQMLWSZV7",1474877340436,22,3708,212,223,"Some","1","English",NA,8,2,423225
673,"A1CC9996A7KZDS:35BLDD71I75JYWFCHRDOUXQMLWSZV7",1474877343092,23,2655,212,83,"Some","0","English",NA,8,2,423225
674,"A1CC9996A7KZDS:35BLDD71I75JYWFCHRDOUXQMLWSZV7",1474877344694,24,1601,212,283,"Some","1","English",NA,8,2,423225
675,"A1CC9996A7KZDS:35BLDD71I75JYWFCHRDOUXQMLWSZV7",1474877346597,25,1902,212,193,"Some","1","English",NA,8,2,423225
676,"A1CC9996A7KZDS:35BLDD71I75JYWFCHRDOUXQMLWSZV7",1474877348216,26,1618,200,212,"Some","0","English",NA,8,2,423225
677,"A1CC9996A7KZDS:35BLDD71I75JYWFCHRDOUXQMLWSZV7",1474877349822,27,1605,200,398,"Some","0","English",NA,8,2,423225
678,"A1CC9996A7KZDS:35BLDD71I75JYWFCHRDOUXQMLWSZV7",1474877351882,28,2058,200,209,"Some","0","English",NA,8,2,423225
679,"A1CC9996A7KZDS:35BLDD71I75JYWFCHRDOUXQMLWSZV7",1474877354097,29,2215,200,195,"Some","0","English",NA,8,2,423225
680,"A1CC9996A7KZDS:35BLDD71I75JYWFCHRDOUXQMLWSZV7",1474877356301,30,2203,28,200,"Some","1","English",NA,8,2,423225
681,"A1CC9996A7KZDS:35BLDD71I75JYWFCHRDOUXQMLWSZV7",1474877357939,31,1637,21,28,"Some","1","English",NA,8,2,423225
682,"A1CC9996A7KZDS:35BLDD71I75JYWFCHRDOUXQMLWSZV7",1474877359654,32,1714,8,21,"Some","1","English",NA,8,2,423225
683,"A1CC9996A7KZDS:35BLDD71I75JYWFCHRDOUXQMLWSZV7",1474877362607,33,2952,228,8,"Some","0","English",NA,8,2,423225
684,"A1CC9996A7KZDS:35BLDD71I75JYWFCHRDOUXQMLWSZV7",1474877364386,34,1778,210,228,"Some","1","English",NA,8,2,423225
685,"A1CC9996A7KZDS:35BLDD71I75JYWFCHRDOUXQMLWSZV7",1474877366104,35,1717,210,208,"Some","1","English",NA,8,2,423225
686,"A1CC9996A7KZDS:35BLDD71I75JYWFCHRDOUXQMLWSZV7",1474877368115,36,2010,210,221,"Some","0","English",NA,8,2,423225
687,"A1CC9996A7KZDS:35BLDD71I75JYWFCHRDOUXQMLWSZV7",1474877369682,37,1566,218,210,"Some","0","English",NA,8,2,423225
688,"A1CC9996A7KZDS:35BLDD71I75JYWFCHRDOUXQMLWSZV7",1474877371309,38,1626,215,218,"Some","1","English",NA,8,2,423225
689,"A1CC9996A7KZDS:35BLDD71I75JYWFCHRDOUXQMLWSZV7",1474877373159,39,1849,63,215,"Some","1","English",NA,8,2,423225
690,"A1CC9996A7KZDS:35BLDD71I75JYWFCHRDOUXQMLWSZV7",1474877375006,40,1846,63,56,"Some","1","English",NA,8,2,423225
691,"A1CC9996A7KZDS:35BLDD71I75JYWFCHRDOUXQMLWSZV7",1474877377074,41,2067,63,47,"Some","0","English",NA,8,2,423225
692,"A1CC9996A7KZDS:35BLDD71I75JYWFCHRDOUXQMLWSZV7",1474877378719,42,1645,63,54,"Some","0","English",NA,8,2,423225
693,"A1CC9996A7KZDS:35BLDD71I75JYWFCHRDOUXQMLWSZV7",1474877380787,43,2067,63,370,"Some","0","English",NA,8,2,423225
694,"A1CC9996A7KZDS:35BLDD71I75JYWFCHRDOUXQMLWSZV7",1474877382715,44,1927,63,120,"Some","1","English",NA,8,2,423225
695,"A1CC9996A7KZDS:35BLDD71I75JYWFCHRDOUXQMLWSZV7",1474877384229,45,1514,63,60,"Some","0","English",NA,8,2,423225
696,"A1CC9996A7KZDS:35BLDD71I75JYWFCHRDOUXQMLWSZV7",1474877386012,46,1782,41,63,"Some","1","English",NA,8,2,423225
697,"A1CC9996A7KZDS:35BLDD71I75JYWFCHRDOUXQMLWSZV7",1474877387526,47,1513,48,41,"Some","1","English",NA,8,2,423225
698,"A1CC9996A7KZDS:35BLDD71I75JYWFCHRDOUXQMLWSZV7",1474877389362,48,1835,41,48,"Some","1","English",NA,8,2,423225
699,"A1CC9996A7KZDS:35BLDD71I75JYWFCHRDOUXQMLWSZV7",1474877391553,49,2191,38,41,"Some","0","English",NA,8,2,423225
700,"A1CC9996A7KZDS:35BLDD71I75JYWFCHRDOUXQMLWSZV7",1474877394202,50,2648,38,55,"Some","1","English",NA,8,2,423225
711,"A1CC9996A7KZDS:35BLDD71I75JYWFCHRDOUXQMLWSZV7",1474877417206,11,1610,298,269,"Most","1","English",NA,8,2,423225
712,"A1CC9996A7KZDS:35BLDD71I75JYWFCHRDOUXQMLWSZV7",1474877419269,12,2062,299,298,"Most","1","English",NA,8,2,423225
713,"A1CC9996A7KZDS:35BLDD71I75JYWFCHRDOUXQMLWSZV7",1474877420953,13,1683,299,306,"Most","0","English",NA,8,2,423225
714,"A1CC9996A7KZDS:35BLDD71I75JYWFCHRDOUXQMLWSZV7",1474877422540,14,1586,299,44,"Most","1","English",NA,8,2,423225
715,"A1CC9996A7KZDS:35BLDD71I75JYWFCHRDOUXQMLWSZV7",1474877424186,15,1646,292,299,"Most","1","English",NA,8,2,423225
716,"A1CC9996A7KZDS:35BLDD71I75JYWFCHRDOUXQMLWSZV7",1474877425797,16,1610,292,148,"Most","1","English",NA,8,2,423225
717,"A1CC9996A7KZDS:35BLDD71I75JYWFCHRDOUXQMLWSZV7",1474877429672,17,3874,292,286,"Most","0","English",NA,8,2,423225
718,"A1CC9996A7KZDS:35BLDD71I75JYWFCHRDOUXQMLWSZV7",1474877431407,18,1734,394,292,"Most","1","English",NA,8,2,423225
719,"A1CC9996A7KZDS:35BLDD71I75JYWFCHRDOUXQMLWSZV7",1474877432785,19,1377,394,226,"Most","1","English",NA,8,2,423225
720,"A1CC9996A7KZDS:35BLDD71I75JYWFCHRDOUXQMLWSZV7",1474877435229,20,2443,394,375,"Most","0","English",NA,8,2,423225
721,"A1CC9996A7KZDS:35BLDD71I75JYWFCHRDOUXQMLWSZV7",1474877437061,21,1831,394,374,"Most","1","English",NA,8,2,423225
722,"A1CC9996A7KZDS:35BLDD71I75JYWFCHRDOUXQMLWSZV7",1474877438463,22,1401,404,394,"Most","1","English",NA,8,2,423225
723,"A1CC9996A7KZDS:35BLDD71I75JYWFCHRDOUXQMLWSZV7",1474877441670,23,3206,404,343,"Most","0","English",NA,8,2,423225
724,"A1CC9996A7KZDS:35BLDD71I75JYWFCHRDOUXQMLWSZV7",1474877443353,24,1682,404,15,"Most","0","English",NA,8,2,423225
725,"A1CC9996A7KZDS:35BLDD71I75JYWFCHRDOUXQMLWSZV7",1474877446387,25,3033,404,10,"Most","0","English",NA,8,2,423225
726,"A1CC9996A7KZDS:35BLDD71I75JYWFCHRDOUXQMLWSZV7",1474877448141,26,1753,404,308,"Most","1","English",NA,8,2,423225
727,"A1CC9996A7KZDS:35BLDD71I75JYWFCHRDOUXQMLWSZV7",1474877449772,27,1630,404,37,"Most","0","English",NA,8,2,423225
728,"A1CC9996A7KZDS:35BLDD71I75JYWFCHRDOUXQMLWSZV7",1474877451519,28,1746,404,411,"Most","1","English",NA,8,2,423225
729,"A1CC9996A7KZDS:35BLDD71I75JYWFCHRDOUXQMLWSZV7",1474877453430,29,1910,404,311,"Most","0","English",NA,8,2,423225
730,"A1CC9996A7KZDS:35BLDD71I75JYWFCHRDOUXQMLWSZV7",1474877455537,30,2106,404,58,"Most","0","English",NA,8,2,423225
731,"A1CC9996A7KZDS:35BLDD71I75JYWFCHRDOUXQMLWSZV7",1474877457816,31,2278,404,397,"Most","0","English",NA,8,2,423225
732,"A1CC9996A7KZDS:35BLDD71I75JYWFCHRDOUXQMLWSZV7",1474877460741,32,2924,416,404,"Most","1","English",NA,8,2,423225
733,"A1CC9996A7KZDS:35BLDD71I75JYWFCHRDOUXQMLWSZV7",1474877462748,33,2006,360,416,"Most","1","English",NA,8,2,423225
734,"A1CC9996A7KZDS:35BLDD71I75JYWFCHRDOUXQMLWSZV7",1474877465095,34,2346,360,269,"Most","0","English",NA,8,2,423225
735,"A1CC9996A7KZDS:35BLDD71I75JYWFCHRDOUXQMLWSZV7",1474877466934,35,1838,360,322,"Most","1","English",NA,8,2,423225
736,"A1CC9996A7KZDS:35BLDD71I75JYWFCHRDOUXQMLWSZV7",1474877468488,36,1553,380,360,"Most","0","English",NA,8,2,423225
737,"A1CC9996A7KZDS:35BLDD71I75JYWFCHRDOUXQMLWSZV7",1474877469950,37,1461,380,406,"Most","1","English",NA,8,2,423225
738,"A1CC9996A7KZDS:35BLDD71I75JYWFCHRDOUXQMLWSZV7",1474877471520,38,1569,380,363,"Most","0","English",NA,8,2,423225
739,"A1CC9996A7KZDS:35BLDD71I75JYWFCHRDOUXQMLWSZV7",1474877472866,39,1345,380,360,"Most","1","English",NA,8,2,423225
740,"A1CC9996A7KZDS:35BLDD71I75JYWFCHRDOUXQMLWSZV7",1474877475073,40,2206,380,392,"Most","0","English",NA,8,2,423225
741,"A1CC9996A7KZDS:35BLDD71I75JYWFCHRDOUXQMLWSZV7",1474877476555,41,1481,366,380,"Most","1","English",NA,8,2,423225
742,"A1CC9996A7KZDS:35BLDD71I75JYWFCHRDOUXQMLWSZV7",1474877477985,42,1429,368,366,"Most","1","English",NA,8,2,423225
743,"A1CC9996A7KZDS:35BLDD71I75JYWFCHRDOUXQMLWSZV7",1474877479532,43,1545,368,60,"Most","1","English",NA,8,2,423225
744,"A1CC9996A7KZDS:35BLDD71I75JYWFCHRDOUXQMLWSZV7",1474877481054,44,1521,368,121,"Most","1","English",NA,8,2,423225
745,"A1CC9996A7KZDS:35BLDD71I75JYWFCHRDOUXQMLWSZV7",1474877482756,45,1701,381,368,"Most","0","English",NA,8,2,423225
746,"A1CC9996A7KZDS:35BLDD71I75JYWFCHRDOUXQMLWSZV7",1474877484230,46,1473,358,381,"Most","1","English",NA,8,2,423225
747,"A1CC9996A7KZDS:35BLDD71I75JYWFCHRDOUXQMLWSZV7",1474877485584,47,1353,343,358,"Most","1","English",NA,8,2,423225
748,"A1CC9996A7KZDS:35BLDD71I75JYWFCHRDOUXQMLWSZV7",1474877487095,48,1510,356,343,"Most","0","English",NA,8,2,423225
749,"A1CC9996A7KZDS:35BLDD71I75JYWFCHRDOUXQMLWSZV7",1474877488640,49,1544,356,172,"Most","1","English",NA,8,2,423225
750,"A1CC9996A7KZDS:35BLDD71I75JYWFCHRDOUXQMLWSZV7",1474877490271,50,1630,361,356,"Most","1","English",NA,8,2,423225
761,"A1CC9996A7KZDS:35BLDD71I75JYWFCHRDOUXQMLWSZV7",1474877517358,11,4400,373,361,"Less than half","1","English",NA,8,2,423225
762,"A1CC9996A7KZDS:35BLDD71I75JYWFCHRDOUXQMLWSZV7",1474877520390,12,3031,373,358,"Less than half","0","English",NA,8,2,423225
763,"A1CC9996A7KZDS:35BLDD71I75JYWFCHRDOUXQMLWSZV7",1474877522161,13,1770,365,373,"Less than half","0","English",NA,8,2,423225
764,"A1CC9996A7KZDS:35BLDD71I75JYWFCHRDOUXQMLWSZV7",1474877523743,14,1581,272,365,"Less than half","0","English",NA,8,2,423225
765,"A1CC9996A7KZDS:35BLDD71I75JYWFCHRDOUXQMLWSZV7",1474877525489,15,1745,272,273,"Less than half","0","English",NA,8,2,423225
766,"A1CC9996A7KZDS:35BLDD71I75JYWFCHRDOUXQMLWSZV7",1474877527143,16,1653,274,272,"Less than half","0","English",NA,8,2,423225
767,"A1CC9996A7KZDS:35BLDD71I75JYWFCHRDOUXQMLWSZV7",1474877529682,17,2538,274,303,"Less than half","0","English",NA,8,2,423225
768,"A1CC9996A7KZDS:35BLDD71I75JYWFCHRDOUXQMLWSZV7",1474877531336,18,1653,274,291,"Less than half","1","English",NA,8,2,423225
769,"A1CC9996A7KZDS:35BLDD71I75JYWFCHRDOUXQMLWSZV7",1474877532898,19,1561,274,285,"Less than half","0","English",NA,8,2,423225
770,"A1CC9996A7KZDS:35BLDD71I75JYWFCHRDOUXQMLWSZV7",1474877534836,20,1937,285,274,"Less than half","0","English",NA,8,2,423225
771,"A1CC9996A7KZDS:35BLDD71I75JYWFCHRDOUXQMLWSZV7",1474877536386,21,1549,285,342,"Less than half","1","English",NA,8,2,423225
772,"A1CC9996A7KZDS:35BLDD71I75JYWFCHRDOUXQMLWSZV7",1474877538100,22,1713,285,347,"Less than half","0","English",NA,8,2,423225
773,"A1CC9996A7KZDS:35BLDD71I75JYWFCHRDOUXQMLWSZV7",1474877539842,23,1741,93,285,"Less than half","0","English",NA,8,2,423225
774,"A1CC9996A7KZDS:35BLDD71I75JYWFCHRDOUXQMLWSZV7",1474877541717,24,1874,89,93,"Less than half","1","English",NA,8,2,423225
775,"A1CC9996A7KZDS:35BLDD71I75JYWFCHRDOUXQMLWSZV7",1474877543407,25,1689,70,89,"Less than half","1","English",NA,8,2,423225
776,"A1CC9996A7KZDS:35BLDD71I75JYWFCHRDOUXQMLWSZV7",1474877545205,26,1797,70,58,"Less than half","0","English",NA,8,2,423225
777,"A1CC9996A7KZDS:35BLDD71I75JYWFCHRDOUXQMLWSZV7",1474877546671,27,1465,70,344,"Less than half","1","English",NA,8,2,423225
778,"A1CC9996A7KZDS:35BLDD71I75JYWFCHRDOUXQMLWSZV7",1474877548180,28,1508,72,70,"Less than half","1","English",NA,8,2,423225
779,"A1CC9996A7KZDS:35BLDD71I75JYWFCHRDOUXQMLWSZV7",1474877549902,29,1721,72,86,"Less than half","1","English",NA,8,2,423225
780,"A1CC9996A7KZDS:35BLDD71I75JYWFCHRDOUXQMLWSZV7",1474877551608,30,1705,72,55,"Less than half","1","English",NA,8,2,423225
781,"A1CC9996A7KZDS:35BLDD71I75JYWFCHRDOUXQMLWSZV7",1474877553190,31,1581,72,91,"Less than half","1","English",NA,8,2,423225
782,"A1CC9996A7KZDS:35BLDD71I75JYWFCHRDOUXQMLWSZV7",1474877555666,32,2475,72,73,"Less than half","1","English",NA,8,2,423225
783,"A1CC9996A7KZDS:35BLDD71I75JYWFCHRDOUXQMLWSZV7",1474877557223,33,1556,79,72,"Less than half","1","English",NA,8,2,423225
784,"A1CC9996A7KZDS:35BLDD71I75JYWFCHRDOUXQMLWSZV7",1474877558673,34,1449,79,390,"Less than half","1","English",NA,8,2,423225
785,"A1CC9996A7KZDS:35BLDD71I75JYWFCHRDOUXQMLWSZV7",1474877561600,35,2926,31,79,"Less than half","0","English",NA,8,2,423225
786,"A1CC9996A7KZDS:35BLDD71I75JYWFCHRDOUXQMLWSZV7",1474877563234,36,1633,31,42,"Less than half","1","English",NA,8,2,423225
787,"A1CC9996A7KZDS:35BLDD71I75JYWFCHRDOUXQMLWSZV7",1474877564688,37,1453,46,31,"Less than half","1","English",NA,8,2,423225
788,"A1CC9996A7KZDS:35BLDD71I75JYWFCHRDOUXQMLWSZV7",1474877566105,38,1416,28,46,"Less than half","1","English",NA,8,2,423225
789,"A1CC9996A7KZDS:35BLDD71I75JYWFCHRDOUXQMLWSZV7",1474877567555,39,1449,28,42,"Less than half","1","English",NA,8,2,423225
790,"A1CC9996A7KZDS:35BLDD71I75JYWFCHRDOUXQMLWSZV7",1474877569409,40,1853,28,116,"Less than half","0","English",NA,8,2,423225
791,"A1CC9996A7KZDS:35BLDD71I75JYWFCHRDOUXQMLWSZV7",1474877570979,41,1569,28,270,"Less than half","1","English",NA,8,2,423225
792,"A1CC9996A7KZDS:35BLDD71I75JYWFCHRDOUXQMLWSZV7",1474877572529,42,1549,24,28,"Less than half","1","English",NA,8,2,423225
793,"A1CC9996A7KZDS:35BLDD71I75JYWFCHRDOUXQMLWSZV7",1474877574123,43,1593,24,11,"Less than half","1","English",NA,8,2,423225
794,"A1CC9996A7KZDS:35BLDD71I75JYWFCHRDOUXQMLWSZV7",1474877575476,44,1352,7,24,"Less than half","1","English",NA,8,2,423225
795,"A1CC9996A7KZDS:35BLDD71I75JYWFCHRDOUXQMLWSZV7",1474877576850,45,1373,7,419,"Less than half","1","English",NA,8,2,423225
796,"A1CC9996A7KZDS:35BLDD71I75JYWFCHRDOUXQMLWSZV7",1474877578556,46,1705,7,8,"Less than half","1","English",NA,8,2,423225
797,"A1CC9996A7KZDS:35BLDD71I75JYWFCHRDOUXQMLWSZV7",1474877581507,47,2950,92,7,"Less than half","0","English",NA,8,2,423225
798,"A1CC9996A7KZDS:35BLDD71I75JYWFCHRDOUXQMLWSZV7",1474877583318,48,1810,92,95,"Less than half","0","English",NA,8,2,423225
799,"A1CC9996A7KZDS:35BLDD71I75JYWFCHRDOUXQMLWSZV7",1474877584835,49,1516,58,92,"Less than half","1","English",NA,8,2,423225
800,"A1CC9996A7KZDS:35BLDD71I75JYWFCHRDOUXQMLWSZV7",1474877586397,50,1561,58,409,"Less than half","0","English",NA,8,2,423225
811,"A1E6F4QKK5XXKO:3ZAZR5XV02QNZN9CQAIJ452X0PDCZM",1474877053106,11,987,183,167,"Less than half","0","English","This was interesting. Thank you.",8,4,468743
812,"A1E6F4QKK5XXKO:3ZAZR5XV02QNZN9CQAIJ452X0PDCZM",1474877057467,12,4355,150,183,"Less than half","0","English","This was interesting. Thank you.",8,4,468743
813,"A1E6F4QKK5XXKO:3ZAZR5XV02QNZN9CQAIJ452X0PDCZM",1474877059825,13,2353,150,135,"Less than half","1","English","This was interesting. Thank you.",8,4,468743
814,"A1E6F4QKK5XXKO:3ZAZR5XV02QNZN9CQAIJ452X0PDCZM",1474877062291,14,2460,138,150,"Less than half","0","English","This was interesting. Thank you.",8,4,468743
815,"A1E6F4QKK5XXKO:3ZAZR5XV02QNZN9CQAIJ452X0PDCZM",1474877064141,15,1845,138,285,"Less than half","1","English","This was interesting. Thank you.",8,4,468743
816,"A1E6F4QKK5XXKO:3ZAZR5XV02QNZN9CQAIJ452X0PDCZM",1474877065746,16,1598,138,160,"Less than half","0","English","This was interesting. Thank you.",8,4,468743
817,"A1E6F4QKK5XXKO:3ZAZR5XV02QNZN9CQAIJ452X0PDCZM",1474877067274,17,1522,138,341,"Less than half","0","English","This was interesting. Thank you.",8,4,468743
818,"A1E6F4QKK5XXKO:3ZAZR5XV02QNZN9CQAIJ452X0PDCZM",1474877069078,18,1799,138,152,"Less than half","1","English","This was interesting. Thank you.",8,4,468743
819,"A1E6F4QKK5XXKO:3ZAZR5XV02QNZN9CQAIJ452X0PDCZM",1474877070922,19,1837,138,384,"Less than half","1","English","This was interesting. Thank you.",8,4,468743
820,"A1E6F4QKK5XXKO:3ZAZR5XV02QNZN9CQAIJ452X0PDCZM",1474877073896,20,2967,138,139,"Less than half","0","English","This was interesting. Thank you.",8,4,468743
821,"A1E6F4QKK5XXKO:3ZAZR5XV02QNZN9CQAIJ452X0PDCZM",1474877075521,21,1610,138,339,"Less than half","1","English","This was interesting. Thank you.",8,4,468743
822,"A1E6F4QKK5XXKO:3ZAZR5XV02QNZN9CQAIJ452X0PDCZM",1474877078539,22,3012,138,15,"Less than half","0","English","This was interesting. Thank you.",8,4,468743
823,"A1E6F4QKK5XXKO:3ZAZR5XV02QNZN9CQAIJ452X0PDCZM",1474877081264,23,2720,138,193,"Less than half","0","English","This was interesting. Thank you.",8,4,468743
824,"A1E6F4QKK5XXKO:3ZAZR5XV02QNZN9CQAIJ452X0PDCZM",1474877083464,24,2195,138,333,"Less than half","1","English","This was interesting. Thank you.",8,4,468743
825,"A1E6F4QKK5XXKO:3ZAZR5XV02QNZN9CQAIJ452X0PDCZM",1474877085427,25,1958,138,156,"Less than half","0","English","This was interesting. Thank you.",8,4,468743
826,"A1E6F4QKK5XXKO:3ZAZR5XV02QNZN9CQAIJ452X0PDCZM",1474877088173,26,2739,119,138,"Less than half","0","English","This was interesting. Thank you.",8,4,468743
827,"A1E6F4QKK5XXKO:3ZAZR5XV02QNZN9CQAIJ452X0PDCZM",1474877090657,27,2480,129,119,"Less than half","1","English","This was interesting. Thank you.",8,4,468743
828,"A1E6F4QKK5XXKO:3ZAZR5XV02QNZN9CQAIJ452X0PDCZM",1474877094218,28,3555,129,146,"Less than half","1","English","This was interesting. Thank you.",8,4,468743
829,"A1E6F4QKK5XXKO:3ZAZR5XV02QNZN9CQAIJ452X0PDCZM",1474877096041,29,1817,16,129,"Less than half","0","English","This was interesting. Thank you.",8,4,468743
830,"A1E6F4QKK5XXKO:3ZAZR5XV02QNZN9CQAIJ452X0PDCZM",1474877098111,30,2064,16,408,"Less than half","0","English","This was interesting. Thank you.",8,4,468743
831,"A1E6F4QKK5XXKO:3ZAZR5XV02QNZN9CQAIJ452X0PDCZM",1474877100077,31,1957,28,16,"Less than half","1","English","This was interesting. Thank you.",8,4,468743
832,"A1E6F4QKK5XXKO:3ZAZR5XV02QNZN9CQAIJ452X0PDCZM",1474877102138,32,2056,28,9,"Less than half","1","English","This was interesting. Thank you.",8,4,468743
833,"A1E6F4QKK5XXKO:3ZAZR5XV02QNZN9CQAIJ452X0PDCZM",1474877106363,33,4220,28,43,"Less than half","0","English","This was interesting. Thank you.",8,4,468743
834,"A1E6F4QKK5XXKO:3ZAZR5XV02QNZN9CQAIJ452X0PDCZM",1474877108606,34,2238,28,15,"Less than half","1","English","This was interesting. Thank you.",8,4,468743
835,"A1E6F4QKK5XXKO:3ZAZR5XV02QNZN9CQAIJ452X0PDCZM",1474877110547,35,1936,30,28,"Less than half","0","English","This was interesting. Thank you.",8,4,468743
836,"A1E6F4QKK5XXKO:3ZAZR5XV02QNZN9CQAIJ452X0PDCZM",1474877113975,36,3423,30,16,"Less than half","0","English","This was interesting. Thank you.",8,4,468743
837,"A1E6F4QKK5XXKO:3ZAZR5XV02QNZN9CQAIJ452X0PDCZM",1474877116186,37,2205,124,30,"Less than half","0","English","This was interesting. Thank you.",8,4,468743
838,"A1E6F4QKK5XXKO:3ZAZR5XV02QNZN9CQAIJ452X0PDCZM",1474877118257,38,2067,124,104,"Less than half","1","English","This was interesting. Thank you.",8,4,468743
839,"A1E6F4QKK5XXKO:3ZAZR5XV02QNZN9CQAIJ452X0PDCZM",1474877121301,39,3039,114,124,"Less than half","1","English","This was interesting. Thank you.",8,4,468743
840,"A1E6F4QKK5XXKO:3ZAZR5XV02QNZN9CQAIJ452X0PDCZM",1474877123550,40,2244,114,97,"Less than half","0","English","This was interesting. Thank you.",8,4,468743
841,"A1E6F4QKK5XXKO:3ZAZR5XV02QNZN9CQAIJ452X0PDCZM",1474877125427,41,1872,119,114,"Less than half","0","English","This was interesting. Thank you.",8,4,468743
842,"A1E6F4QKK5XXKO:3ZAZR5XV02QNZN9CQAIJ452X0PDCZM",1474877127170,42,1737,119,139,"Less than half","0","English","This was interesting. Thank you.",8,4,468743
843,"A1E6F4QKK5XXKO:3ZAZR5XV02QNZN9CQAIJ452X0PDCZM",1474877128785,43,1610,119,168,"Less than half","1","English","This was interesting. Thank you.",8,4,468743
844,"A1E6F4QKK5XXKO:3ZAZR5XV02QNZN9CQAIJ452X0PDCZM",1474877130470,44,1680,115,119,"Less than half","1","English","This was interesting. Thank you.",8,4,468743
845,"A1E6F4QKK5XXKO:3ZAZR5XV02QNZN9CQAIJ452X0PDCZM",1474877133871,45,3395,115,222,"Less than half","1","English","This was interesting. Thank you.",8,4,468743
846,"A1E6F4QKK5XXKO:3ZAZR5XV02QNZN9CQAIJ452X0PDCZM",1474877135477,46,1600,115,408,"Less than half","1","English","This was interesting. Thank you.",8,4,468743
847,"A1E6F4QKK5XXKO:3ZAZR5XV02QNZN9CQAIJ452X0PDCZM",1474877138077,47,2595,106,115,"Less than half","0","English","This was interesting. Thank you.",8,4,468743
848,"A1E6F4QKK5XXKO:3ZAZR5XV02QNZN9CQAIJ452X0PDCZM",1474877140050,48,1969,106,99,"Less than half","0","English","This was interesting. Thank you.",8,4,468743
849,"A1E6F4QKK5XXKO:3ZAZR5XV02QNZN9CQAIJ452X0PDCZM",1474877141993,49,1937,106,345,"Less than half","0","English","This was interesting. Thank you.",8,4,468743
850,"A1E6F4QKK5XXKO:3ZAZR5XV02QNZN9CQAIJ452X0PDCZM",1474877145940,50,3942,94,106,"Less than half","0","English","This was interesting. Thank you.",8,4,468743
861,"A1E6F4QKK5XXKO:3ZAZR5XV02QNZN9CQAIJ452X0PDCZM",1474877174494,11,1544,2,432,"Some","0","English","This was interesting. Thank you.",8,4,468743
862,"A1E6F4QKK5XXKO:3ZAZR5XV02QNZN9CQAIJ452X0PDCZM",1474877176425,12,1926,2,427,"Some","1","English","This was interesting. Thank you.",8,4,468743
863,"A1E6F4QKK5XXKO:3ZAZR5XV02QNZN9CQAIJ452X0PDCZM",1474877178130,13,1700,2,431,"Some","1","English","This was interesting. Thank you.",8,4,468743
864,"A1E6F4QKK5XXKO:3ZAZR5XV02QNZN9CQAIJ452X0PDCZM",1474877183810,14,5668,271,2,"Some","1","English","This was interesting. Thank you.",8,4,468743
865,"A1E6F4QKK5XXKO:3ZAZR5XV02QNZN9CQAIJ452X0PDCZM",1474877185723,15,1907,271,401,"Some","0","English","This was interesting. Thank you.",8,4,468743
866,"A1E6F4QKK5XXKO:3ZAZR5XV02QNZN9CQAIJ452X0PDCZM",1474877187071,16,1342,271,64,"Some","1","English","This was interesting. Thank you.",8,4,468743
867,"A1E6F4QKK5XXKO:3ZAZR5XV02QNZN9CQAIJ452X0PDCZM",1474877188747,17,1671,70,271,"Some","1","English","This was interesting. Thank you.",8,4,468743
868,"A1E6F4QKK5XXKO:3ZAZR5XV02QNZN9CQAIJ452X0PDCZM",1474877190580,18,1828,70,73,"Some","0","English","This was interesting. Thank you.",8,4,468743
869,"A1E6F4QKK5XXKO:3ZAZR5XV02QNZN9CQAIJ452X0PDCZM",1474877193297,19,2712,70,81,"Some","1","English","This was interesting. Thank you.",8,4,468743
870,"A1E6F4QKK5XXKO:3ZAZR5XV02QNZN9CQAIJ452X0PDCZM",1474877197443,20,4132,70,70,"Some","0","English","This was interesting. Thank you.",8,4,468743
871,"A1E6F4QKK5XXKO:3ZAZR5XV02QNZN9CQAIJ452X0PDCZM",1474877198860,21,1414,76,70,"Some","1","English","This was interesting. Thank you.",8,4,468743
872,"A1E6F4QKK5XXKO:3ZAZR5XV02QNZN9CQAIJ452X0PDCZM",1474877201070,22,2206,76,65,"Some","1","English","This was interesting. Thank you.",8,4,468743
873,"A1E6F4QKK5XXKO:3ZAZR5XV02QNZN9CQAIJ452X0PDCZM",1474877204609,23,3532,76,240,"Some","0","English","This was interesting. Thank you.",8,4,468743
874,"A1E6F4QKK5XXKO:3ZAZR5XV02QNZN9CQAIJ452X0PDCZM",1474877206493,24,1879,96,76,"Some","1","English","This was interesting. Thank you.",8,4,468743
875,"A1E6F4QKK5XXKO:3ZAZR5XV02QNZN9CQAIJ452X0PDCZM",1474877208089,25,1591,116,96,"Some","0","English","This was interesting. Thank you.",8,4,468743
876,"A1E6F4QKK5XXKO:3ZAZR5XV02QNZN9CQAIJ452X0PDCZM",1474877209932,26,1838,117,116,"Some","1","English","This was interesting. Thank you.",8,4,468743
877,"A1E6F4QKK5XXKO:3ZAZR5XV02QNZN9CQAIJ452X0PDCZM",1474877213945,27,4008,117,132,"Some","0","English","This was interesting. Thank you.",8,4,468743
878,"A1E6F4QKK5XXKO:3ZAZR5XV02QNZN9CQAIJ452X0PDCZM",1474877215878,28,1928,117,342,"Some","0","English","This was interesting. Thank you.",8,4,468743
879,"A1E6F4QKK5XXKO:3ZAZR5XV02QNZN9CQAIJ452X0PDCZM",1474877217655,29,1772,117,413,"Some","0","English","This was interesting. Thank you.",8,4,468743
880,"A1E6F4QKK5XXKO:3ZAZR5XV02QNZN9CQAIJ452X0PDCZM",1474877220292,30,2631,327,117,"Some","0","English","This was interesting. Thank you.",8,4,468743
881,"A1E6F4QKK5XXKO:3ZAZR5XV02QNZN9CQAIJ452X0PDCZM",1474877222624,31,2325,327,322,"Some","0","English","This was interesting. Thank you.",8,4,468743
882,"A1E6F4QKK5XXKO:3ZAZR5XV02QNZN9CQAIJ452X0PDCZM",1474877224854,32,2224,317,327,"Some","1","English","This was interesting. Thank you.",8,4,468743
883,"A1E6F4QKK5XXKO:3ZAZR5XV02QNZN9CQAIJ452X0PDCZM",1474877226559,33,1701,317,311,"Some","1","English","This was interesting. Thank you.",8,4,468743
884,"A1E6F4QKK5XXKO:3ZAZR5XV02QNZN9CQAIJ452X0PDCZM",1474877228312,34,1748,317,312,"Some","0","English","This was interesting. Thank you.",8,4,468743
885,"A1E6F4QKK5XXKO:3ZAZR5XV02QNZN9CQAIJ452X0PDCZM",1474877230623,35,2306,312,317,"Some","1","English","This was interesting. Thank you.",8,4,468743
886,"A1E6F4QKK5XXKO:3ZAZR5XV02QNZN9CQAIJ452X0PDCZM",1474877232516,36,1888,301,312,"Some","1","English","This was interesting. Thank you.",8,4,468743
887,"A1E6F4QKK5XXKO:3ZAZR5XV02QNZN9CQAIJ452X0PDCZM",1474877235361,37,2840,301,321,"Some","0","English","This was interesting. Thank you.",8,4,468743
888,"A1E6F4QKK5XXKO:3ZAZR5XV02QNZN9CQAIJ452X0PDCZM",1474877236086,38,720,321,301,"Some","0","English","This was interesting. Thank you.",8,4,468743
889,"A1E6F4QKK5XXKO:3ZAZR5XV02QNZN9CQAIJ452X0PDCZM",1474877236134,39,42,329,321,"Some","0","English","This was interesting. Thank you.",8,4,468743
890,"A1E6F4QKK5XXKO:3ZAZR5XV02QNZN9CQAIJ452X0PDCZM",1474877238006,40,1867,329,8,"Some","0","English","This was interesting. Thank you.",8,4,468743
891,"A1E6F4QKK5XXKO:3ZAZR5XV02QNZN9CQAIJ452X0PDCZM",1474877239733,41,1722,380,329,"Some","0","English","This was interesting. Thank you.",8,4,468743
892,"A1E6F4QKK5XXKO:3ZAZR5XV02QNZN9CQAIJ452X0PDCZM",1474877241329,42,1591,326,380,"Some","1","English","This was interesting. Thank you.",8,4,468743
893,"A1E6F4QKK5XXKO:3ZAZR5XV02QNZN9CQAIJ452X0PDCZM",1474877245850,43,4517,326,318,"Some","1","English","This was interesting. Thank you.",8,4,468743
894,"A1E6F4QKK5XXKO:3ZAZR5XV02QNZN9CQAIJ452X0PDCZM",1474877247415,44,1559,326,367,"Some","0","English","This was interesting. Thank you.",8,4,468743
895,"A1E6F4QKK5XXKO:3ZAZR5XV02QNZN9CQAIJ452X0PDCZM",1474877249338,45,1918,327,326,"Some","0","English","This was interesting. Thank you.",8,4,468743
896,"A1E6F4QKK5XXKO:3ZAZR5XV02QNZN9CQAIJ452X0PDCZM",1474877251083,46,1739,316,327,"Some","1","English","This was interesting. Thank you.",8,4,468743
897,"A1E6F4QKK5XXKO:3ZAZR5XV02QNZN9CQAIJ452X0PDCZM",1474877253184,47,2096,300,316,"Some","1","English","This was interesting. Thank you.",8,4,468743
898,"A1E6F4QKK5XXKO:3ZAZR5XV02QNZN9CQAIJ452X0PDCZM",1474877254887,48,1698,44,300,"Some","0","English","This was interesting. Thank you.",8,4,468743
899,"A1E6F4QKK5XXKO:3ZAZR5XV02QNZN9CQAIJ452X0PDCZM",1474877256438,49,1545,44,95,"Some","1","English","This was interesting. Thank you.",8,4,468743
900,"A1E6F4QKK5XXKO:3ZAZR5XV02QNZN9CQAIJ452X0PDCZM",1474877259779,50,3334,304,44,"Some","1","English","This was interesting. Thank you.",8,4,468743
911,"A1E6F4QKK5XXKO:3ZAZR5XV02QNZN9CQAIJ452X0PDCZM",1474877286336,11,1998,428,162,"Almost all","1","English","This was interesting. Thank you.",8,4,468743
912,"A1E6F4QKK5XXKO:3ZAZR5XV02QNZN9CQAIJ452X0PDCZM",1474877289627,12,3286,428,10,"Almost all","1","English","This was interesting. Thank you.",8,4,468743
913,"A1E6F4QKK5XXKO:3ZAZR5XV02QNZN9CQAIJ452X0PDCZM",1474877291410,13,1776,428,12,"Almost all","0","English","This was interesting. Thank you.",8,4,468743
914,"A1E6F4QKK5XXKO:3ZAZR5XV02QNZN9CQAIJ452X0PDCZM",1474877293027,14,1613,428,417,"Almost all","1","English","This was interesting. Thank you.",8,4,468743
915,"A1E6F4QKK5XXKO:3ZAZR5XV02QNZN9CQAIJ452X0PDCZM",1474877294583,15,1551,424,428,"Almost all","1","English","This was interesting. Thank you.",8,4,468743
916,"A1E6F4QKK5XXKO:3ZAZR5XV02QNZN9CQAIJ452X0PDCZM",1474877296873,16,2285,429,424,"Almost all","1","English","This was interesting. Thank you.",8,4,468743
917,"A1E6F4QKK5XXKO:3ZAZR5XV02QNZN9CQAIJ452X0PDCZM",1474877298727,17,1849,429,179,"Almost all","0","English","This was interesting. Thank you.",8,4,468743
918,"A1E6F4QKK5XXKO:3ZAZR5XV02QNZN9CQAIJ452X0PDCZM",1474877300562,18,1830,429,220,"Almost all","0","English","This was interesting. Thank you.",8,4,468743
919,"A1E6F4QKK5XXKO:3ZAZR5XV02QNZN9CQAIJ452X0PDCZM",1474877302304,19,1737,429,223,"Almost all","0","English","This was interesting. Thank you.",8,4,468743
920,"A1E6F4QKK5XXKO:3ZAZR5XV02QNZN9CQAIJ452X0PDCZM",1474877304722,20,2414,429,280,"Almost all","1","English","This was interesting. Thank you.",8,4,468743
921,"A1E6F4QKK5XXKO:3ZAZR5XV02QNZN9CQAIJ452X0PDCZM",1474877306584,21,1857,429,417,"Almost all","0","English","This was interesting. Thank you.",8,4,468743
922,"A1E6F4QKK5XXKO:3ZAZR5XV02QNZN9CQAIJ452X0PDCZM",1474877308131,22,1542,429,5,"Almost all","0","English","This was interesting. Thank you.",8,4,468743
923,"A1E6F4QKK5XXKO:3ZAZR5XV02QNZN9CQAIJ452X0PDCZM",1474877310169,23,2031,429,21,"Almost all","1","English","This was interesting. Thank you.",8,4,468743
924,"A1E6F4QKK5XXKO:3ZAZR5XV02QNZN9CQAIJ452X0PDCZM",1474877314784,24,4610,429,251,"Almost all","1","English","This was interesting. Thank you.",8,4,468743
925,"A1E6F4QKK5XXKO:3ZAZR5XV02QNZN9CQAIJ452X0PDCZM",1474877315528,25,737,429,423,"Almost all","1","English","This was interesting. Thank you.",8,4,468743
926,"A1E6F4QKK5XXKO:3ZAZR5XV02QNZN9CQAIJ452X0PDCZM",1474877317273,26,1741,429,412,"Almost all","0","English","This was interesting. Thank you.",8,4,468743
927,"A1E6F4QKK5XXKO:3ZAZR5XV02QNZN9CQAIJ452X0PDCZM",1474877318729,27,1450,429,160,"Almost all","1","English","This was interesting. Thank you.",8,4,468743
928,"A1E6F4QKK5XXKO:3ZAZR5XV02QNZN9CQAIJ452X0PDCZM",1474877320295,28,1561,429,154,"Almost all","0","English","This was interesting. Thank you.",8,4,468743
929,"A1E6F4QKK5XXKO:3ZAZR5XV02QNZN9CQAIJ452X0PDCZM",1474877322120,29,1819,429,18,"Almost all","1","English","This was interesting. Thank you.",8,4,468743
930,"A1E6F4QKK5XXKO:3ZAZR5XV02QNZN9CQAIJ452X0PDCZM",1474877324301,30,2176,429,409,"Almost all","0","English","This was interesting. Thank you.",8,4,468743
931,"A1E6F4QKK5XXKO:3ZAZR5XV02QNZN9CQAIJ452X0PDCZM",1474877326055,31,1749,429,371,"Almost all","0","English","This was interesting. Thank you.",8,4,468743
932,"A1E6F4QKK5XXKO:3ZAZR5XV02QNZN9CQAIJ452X0PDCZM",1474877327730,32,1670,429,294,"Almost all","1","English","This was interesting. Thank you.",8,4,468743
933,"A1E6F4QKK5XXKO:3ZAZR5XV02QNZN9CQAIJ452X0PDCZM",1474877329257,33,1521,429,17,"Almost all","1","English","This was interesting. Thank you.",8,4,468743
934,"A1E6F4QKK5XXKO:3ZAZR5XV02QNZN9CQAIJ452X0PDCZM",1474877330803,34,1541,429,402,"Almost all","0","English","This was interesting. Thank you.",8,4,468743
935,"A1E6F4QKK5XXKO:3ZAZR5XV02QNZN9CQAIJ452X0PDCZM",1474877332339,35,1530,429,417,"Almost all","1","English","This was interesting. Thank you.",8,4,468743
936,"A1E6F4QKK5XXKO:3ZAZR5XV02QNZN9CQAIJ452X0PDCZM",1474877333925,36,1580,429,417,"Almost all","0","English","This was interesting. Thank you.",8,4,468743
937,"A1E6F4QKK5XXKO:3ZAZR5XV02QNZN9CQAIJ452X0PDCZM",1474877336017,37,2086,430,429,"Almost all","1","English","This was interesting. Thank you.",8,4,468743
938,"A1E6F4QKK5XXKO:3ZAZR5XV02QNZN9CQAIJ452X0PDCZM",1474877337811,38,1789,430,417,"Almost all","1","English","This was interesting. Thank you.",8,4,468743
939,"A1E6F4QKK5XXKO:3ZAZR5XV02QNZN9CQAIJ452X0PDCZM",1474877339675,39,1859,430,264,"Almost all","1","English","This was interesting. Thank you.",8,4,468743
940,"A1E6F4QKK5XXKO:3ZAZR5XV02QNZN9CQAIJ452X0PDCZM",1474877341082,40,1402,430,279,"Almost all","1","English","This was interesting. Thank you.",8,4,468743
941,"A1E6F4QKK5XXKO:3ZAZR5XV02QNZN9CQAIJ452X0PDCZM",1474877342877,41,1790,430,416,"Almost all","1","English","This was interesting. Thank you.",8,4,468743
942,"A1E6F4QKK5XXKO:3ZAZR5XV02QNZN9CQAIJ452X0PDCZM",1474877344314,42,1431,430,295,"Almost all","1","English","This was interesting. Thank you.",8,4,468743
943,"A1E6F4QKK5XXKO:3ZAZR5XV02QNZN9CQAIJ452X0PDCZM",1474877347236,43,2918,430,10,"Almost all","1","English","This was interesting. Thank you.",8,4,468743
944,"A1E6F4QKK5XXKO:3ZAZR5XV02QNZN9CQAIJ452X0PDCZM",1474877348475,44,1232,430,419,"Almost all","0","English","This was interesting. Thank you.",8,4,468743
945,"A1E6F4QKK5XXKO:3ZAZR5XV02QNZN9CQAIJ452X0PDCZM",1474877350854,45,2375,430,7,"Almost all","0","English","This was interesting. Thank you.",8,4,468743
946,"A1E6F4QKK5XXKO:3ZAZR5XV02QNZN9CQAIJ452X0PDCZM",1474877352892,46,2033,430,420,"Almost all","1","English","This was interesting. Thank you.",8,4,468743
947,"A1E6F4QKK5XXKO:3ZAZR5XV02QNZN9CQAIJ452X0PDCZM",1474877354705,47,1807,430,414,"Almost all","1","English","This was interesting. Thank you.",8,4,468743
948,"A1E6F4QKK5XXKO:3ZAZR5XV02QNZN9CQAIJ452X0PDCZM",1474877356528,48,1818,430,405,"Almost all","1","English","This was interesting. Thank you.",8,4,468743
949,"A1E6F4QKK5XXKO:3ZAZR5XV02QNZN9CQAIJ452X0PDCZM",1474877357857,49,1323,430,424,"Almost all","0","English","This was interesting. Thank you.",8,4,468743
950,"A1E6F4QKK5XXKO:3ZAZR5XV02QNZN9CQAIJ452X0PDCZM",1474877359294,50,1430,430,139,"Almost all","1","English","This was interesting. Thank you.",8,4,468743
961,"A1E6F4QKK5XXKO:3ZAZR5XV02QNZN9CQAIJ452X0PDCZM",1474877388129,11,2006,251,256,"About half","0","English","This was interesting. Thank you.",8,4,468743
962,"A1E6F4QKK5XXKO:3ZAZR5XV02QNZN9CQAIJ452X0PDCZM",1474877389775,12,1640,251,33,"About half","0","English","This was interesting. Thank you.",8,4,468743
963,"A1E6F4QKK5XXKO:3ZAZR5XV02QNZN9CQAIJ452X0PDCZM",1474877391911,13,2130,251,421,"About half","0","English","This was interesting. Thank you.",8,4,468743
964,"A1E6F4QKK5XXKO:3ZAZR5XV02QNZN9CQAIJ452X0PDCZM",1474877393289,14,1371,251,28,"About half","1","English","This was interesting. Thank you.",8,4,468743
965,"A1E6F4QKK5XXKO:3ZAZR5XV02QNZN9CQAIJ452X0PDCZM",1474877397017,15,3721,254,251,"About half","1","English","This was interesting. Thank you.",8,4,468743
966,"A1E6F4QKK5XXKO:3ZAZR5XV02QNZN9CQAIJ452X0PDCZM",1474877399059,16,2038,254,398,"About half","1","English","This was interesting. Thank you.",8,4,468743
967,"A1E6F4QKK5XXKO:3ZAZR5XV02QNZN9CQAIJ452X0PDCZM",1474877400615,17,1551,254,419,"About half","1","English","This was interesting. Thank you.",8,4,468743
968,"A1E6F4QKK5XXKO:3ZAZR5XV02QNZN9CQAIJ452X0PDCZM",1474877402725,18,2105,194,254,"About half","0","English","This was interesting. Thank you.",8,4,468743
969,"A1E6F4QKK5XXKO:3ZAZR5XV02QNZN9CQAIJ452X0PDCZM",1474877405156,19,2427,201,194,"About half","1","English","This was interesting. Thank you.",8,4,468743
970,"A1E6F4QKK5XXKO:3ZAZR5XV02QNZN9CQAIJ452X0PDCZM",1474877407347,20,2186,201,194,"About half","1","English","This was interesting. Thank you.",8,4,468743
971,"A1E6F4QKK5XXKO:3ZAZR5XV02QNZN9CQAIJ452X0PDCZM",1474877409102,21,1749,214,201,"About half","0","English","This was interesting. Thank you.",8,4,468743
972,"A1E6F4QKK5XXKO:3ZAZR5XV02QNZN9CQAIJ452X0PDCZM",1474877410837,22,1730,195,214,"About half","1","English","This was interesting. Thank you.",8,4,468743
973,"A1E6F4QKK5XXKO:3ZAZR5XV02QNZN9CQAIJ452X0PDCZM",1474877413174,23,2333,195,182,"About half","0","English","This was interesting. Thank you.",8,4,468743
974,"A1E6F4QKK5XXKO:3ZAZR5XV02QNZN9CQAIJ452X0PDCZM",1474877414729,24,1549,195,426,"About half","1","English","This was interesting. Thank you.",8,4,468743
975,"A1E6F4QKK5XXKO:3ZAZR5XV02QNZN9CQAIJ452X0PDCZM",1474877417273,25,2539,195,193,"About half","0","English","This was interesting. Thank you.",8,4,468743
976,"A1E6F4QKK5XXKO:3ZAZR5XV02QNZN9CQAIJ452X0PDCZM",1474877419423,26,2143,195,307,"About half","1","English","This was interesting. Thank you.",8,4,468743
977,"A1E6F4QKK5XXKO:3ZAZR5XV02QNZN9CQAIJ452X0PDCZM",1474877422278,27,2851,201,195,"About half","0","English","This was interesting. Thank you.",8,4,468743
978,"A1E6F4QKK5XXKO:3ZAZR5XV02QNZN9CQAIJ452X0PDCZM",1474877424459,28,2175,201,162,"About half","1","English","This was interesting. Thank you.",8,4,468743
979,"A1E6F4QKK5XXKO:3ZAZR5XV02QNZN9CQAIJ452X0PDCZM",1474877427614,29,3150,201,220,"About half","1","English","This was interesting. Thank you.",8,4,468743
980,"A1E6F4QKK5XXKO:3ZAZR5XV02QNZN9CQAIJ452X0PDCZM",1474877429319,30,1700,201,86,"About half","0","English","This was interesting. Thank you.",8,4,468743
981,"A1E6F4QKK5XXKO:3ZAZR5XV02QNZN9CQAIJ452X0PDCZM",1474877431319,31,1993,201,185,"About half","0","English","This was interesting. Thank you.",8,4,468743
982,"A1E6F4QKK5XXKO:3ZAZR5XV02QNZN9CQAIJ452X0PDCZM",1474877433550,32,2226,219,201,"About half","0","English","This was interesting. Thank you.",8,4,468743
983,"A1E6F4QKK5XXKO:3ZAZR5XV02QNZN9CQAIJ452X0PDCZM",1474877435828,33,2273,219,343,"About half","0","English","This was interesting. Thank you.",8,4,468743
984,"A1E6F4QKK5XXKO:3ZAZR5XV02QNZN9CQAIJ452X0PDCZM",1474877437580,34,1747,219,209,"About half","1","English","This was interesting. Thank you.",8,4,468743
985,"A1E6F4QKK5XXKO:3ZAZR5XV02QNZN9CQAIJ452X0PDCZM",1474877439348,35,1763,219,97,"About half","1","English","This was interesting. Thank you.",8,4,468743
986,"A1E6F4QKK5XXKO:3ZAZR5XV02QNZN9CQAIJ452X0PDCZM",1474877441400,36,2047,219,232,"About half","1","English","This was interesting. Thank you.",8,4,468743
987,"A1E6F4QKK5XXKO:3ZAZR5XV02QNZN9CQAIJ452X0PDCZM",1474877442787,37,1382,215,219,"About half","0","English","This was interesting. Thank you.",8,4,468743
988,"A1E6F4QKK5XXKO:3ZAZR5XV02QNZN9CQAIJ452X0PDCZM",1474877444723,38,1929,86,215,"About half","1","English","This was interesting. Thank you.",8,4,468743
989,"A1E6F4QKK5XXKO:3ZAZR5XV02QNZN9CQAIJ452X0PDCZM",1474877446798,39,2069,86,96,"About half","0","English","This was interesting. Thank you.",8,4,468743
990,"A1E6F4QKK5XXKO:3ZAZR5XV02QNZN9CQAIJ452X0PDCZM",1474877449434,40,2630,86,379,"About half","1","English","This was interesting. Thank you.",8,4,468743
991,"A1E6F4QKK5XXKO:3ZAZR5XV02QNZN9CQAIJ452X0PDCZM",1474877450901,41,1461,86,81,"About half","1","English","This was interesting. Thank you.",8,4,468743
992,"A1E6F4QKK5XXKO:3ZAZR5XV02QNZN9CQAIJ452X0PDCZM",1474877452467,42,1560,160,86,"About half","1","English","This was interesting. Thank you.",8,4,468743
