"X","id","itemTime","trial","RT","number_chosen","number_not_chosen","quantifier","clicked_left","language","comments","engagement","difficulty","time"
1,"A16KDMZ7CEDHNV:3PZDLQMM0UTXTC601395HUSQFGE2C4",1474877501889,1,3864,209,49,"Half","right","English",NA,8,6,757997
2,"A16KDMZ7CEDHNV:3PZDLQMM0UTXTC601395HUSQFGE2C4",1474877506563,2,4666,209,335,"Half","right","English",NA,8,6,757997
3,"A16KDMZ7CEDHNV:3PZDLQMM0UTXTC601395HUSQFGE2C4",1474877511036,3,4468,204,209,"Half","right","English",NA,8,6,757997
4,"A16KDMZ7CEDHNV:3PZDLQMM0UTXTC601395HUSQFGE2C4",1474877515593,4,4551,201,204,"Half","right","English",NA,8,6,757997
5,"A16KDMZ7CEDHNV:3PZDLQMM0UTXTC601395HUSQFGE2C4",1474877520579,5,4982,201,209,"Half","left","English",NA,8,6,757997
6,"A16KDMZ7CEDHNV:3PZDLQMM0UTXTC601395HUSQFGE2C4",1474877523547,6,2962,201,1,"Half","left","English",NA,8,6,757997
7,"A16KDMZ7CEDHNV:3PZDLQMM0UTXTC601395HUSQFGE2C4",1474877528575,7,5024,185,201,"Half","right","English",NA,8,6,757997
8,"A16KDMZ7CEDHNV:3PZDLQMM0UTXTC601395HUSQFGE2C4",1474877531550,8,2970,185,38,"Half","left","English",NA,8,6,757997
9,"A16KDMZ7CEDHNV:3PZDLQMM0UTXTC601395HUSQFGE2C4",1474877536312,9,4757,197,185,"Half","right","English",NA,8,6,757997
10,"A16KDMZ7CEDHNV:3PZDLQMM0UTXTC601395HUSQFGE2C4",1474877538408,10,2088,197,1,"Half","right","English",NA,8,6,757997
11,"A16KDMZ7CEDHNV:3PZDLQMM0UTXTC601395HUSQFGE2C4",1474877542225,11,3809,197,170,"Half","right","English",NA,8,6,757997
12,"A16KDMZ7CEDHNV:3PZDLQMM0UTXTC601395HUSQFGE2C4",1474877545418,12,3185,197,29,"Half","left","English",NA,8,6,757997
13,"A16KDMZ7CEDHNV:3PZDLQMM0UTXTC601395HUSQFGE2C4",1474877550587,13,5162,197,216,"Half","left","English",NA,8,6,757997
14,"A16KDMZ7CEDHNV:3PZDLQMM0UTXTC601395HUSQFGE2C4",1474877554103,14,3510,196,197,"Half","right","English",NA,8,6,757997
15,"A16KDMZ7CEDHNV:3PZDLQMM0UTXTC601395HUSQFGE2C4",1474877560509,15,6399,196,190,"Half","right","English",NA,8,6,757997
16,"A16KDMZ7CEDHNV:3PZDLQMM0UTXTC601395HUSQFGE2C4",1474877565008,16,4494,212,196,"Half","right","English",NA,8,6,757997
17,"A16KDMZ7CEDHNV:3PZDLQMM0UTXTC601395HUSQFGE2C4",1474877567703,17,2688,212,399,"Half","right","English",NA,8,6,757997
18,"A16KDMZ7CEDHNV:3PZDLQMM0UTXTC601395HUSQFGE2C4",1474877572222,18,4514,212,144,"Half","left","English",NA,8,6,757997
19,"A16KDMZ7CEDHNV:3PZDLQMM0UTXTC601395HUSQFGE2C4",1474877578474,19,6248,212,223,"Half","right","English",NA,8,6,757997
20,"A16KDMZ7CEDHNV:3PZDLQMM0UTXTC601395HUSQFGE2C4",1474877581126,20,2648,212,337,"Half","right","English",NA,8,6,757997
21,"A16KDMZ7CEDHNV:3PZDLQMM0UTXTC601395HUSQFGE2C4",1474877585309,21,4178,205,212,"Half","right","English",NA,8,6,757997
22,"A16KDMZ7CEDHNV:3PZDLQMM0UTXTC601395HUSQFGE2C4",1474877589083,22,3769,205,202,"Half","left","English",NA,8,6,757997
23,"A16KDMZ7CEDHNV:3PZDLQMM0UTXTC601395HUSQFGE2C4",1474877593343,23,4257,205,186,"Half","right","English",NA,8,6,757997
24,"A16KDMZ7CEDHNV:3PZDLQMM0UTXTC601395HUSQFGE2C4",1474877596322,24,2974,205,207,"Half","right","English",NA,8,6,757997
25,"A16KDMZ7CEDHNV:3PZDLQMM0UTXTC601395HUSQFGE2C4",1474877600382,25,4058,205,112,"Half","left","English",NA,8,6,757997
26,"A16KDMZ7CEDHNV:3PZDLQMM0UTXTC601395HUSQFGE2C4",1474877603319,26,2928,205,55,"Half","right","English",NA,8,6,757997
27,"A16KDMZ7CEDHNV:3PZDLQMM0UTXTC601395HUSQFGE2C4",1474877609774,27,6447,205,194,"Half","right","English",NA,8,6,757997
28,"A16KDMZ7CEDHNV:3PZDLQMM0UTXTC601395HUSQFGE2C4",1474877613897,28,4119,205,206,"Half","left","English",NA,8,6,757997
29,"A16KDMZ7CEDHNV:3PZDLQMM0UTXTC601395HUSQFGE2C4",1474877617735,29,3831,205,225,"Half","left","English",NA,8,6,757997
30,"A16KDMZ7CEDHNV:3PZDLQMM0UTXTC601395HUSQFGE2C4",1474877621495,30,3755,205,211,"Half","right","English",NA,8,6,757997
31,"A16KDMZ7CEDHNV:3PZDLQMM0UTXTC601395HUSQFGE2C4",1474877624231,31,2728,205,27,"Half","left","English",NA,8,6,757997
32,"A16KDMZ7CEDHNV:3PZDLQMM0UTXTC601395HUSQFGE2C4",1474877628277,32,4043,200,205,"Half","right","English",NA,8,6,757997
33,"A16KDMZ7CEDHNV:3PZDLQMM0UTXTC601395HUSQFGE2C4",1474877631758,33,3477,189,200,"Half","left","English",NA,8,6,757997
34,"A16KDMZ7CEDHNV:3PZDLQMM0UTXTC601395HUSQFGE2C4",1474877635621,34,3859,189,252,"Half","right","English",NA,8,6,757997
35,"A16KDMZ7CEDHNV:3PZDLQMM0UTXTC601395HUSQFGE2C4",1474877638551,35,2925,189,194,"Half","right","English",NA,8,6,757997
36,"A16KDMZ7CEDHNV:3PZDLQMM0UTXTC601395HUSQFGE2C4",1474877642302,36,3745,176,189,"Half","left","English",NA,8,6,757997
37,"A16KDMZ7CEDHNV:3PZDLQMM0UTXTC601395HUSQFGE2C4",1474877646494,37,4188,176,182,"Half","left","English",NA,8,6,757997
38,"A16KDMZ7CEDHNV:3PZDLQMM0UTXTC601395HUSQFGE2C4",1474877649370,38,2873,157,176,"Half","right","English",NA,8,6,757997
39,"A16KDMZ7CEDHNV:3PZDLQMM0UTXTC601395HUSQFGE2C4",1474877655853,39,6479,157,363,"Half","left","English",NA,8,6,757997
40,"A16KDMZ7CEDHNV:3PZDLQMM0UTXTC601395HUSQFGE2C4",1474877659969,40,4112,157,175,"Half","right","English",NA,8,6,757997
41,"A16KDMZ7CEDHNV:3PZDLQMM0UTXTC601395HUSQFGE2C4",1474877662864,41,2891,157,403,"Half","right","English",NA,8,6,757997
42,"A16KDMZ7CEDHNV:3PZDLQMM0UTXTC601395HUSQFGE2C4",1474877666128,42,3260,157,119,"Half","right","English",NA,8,6,757997
43,"A16KDMZ7CEDHNV:3PZDLQMM0UTXTC601395HUSQFGE2C4",1474877670284,43,4152,158,157,"Half","left","English",NA,8,6,757997
44,"A16KDMZ7CEDHNV:3PZDLQMM0UTXTC601395HUSQFGE2C4",1474877674741,44,4452,158,153,"Half","right","English",NA,8,6,757997
45,"A16KDMZ7CEDHNV:3PZDLQMM0UTXTC601395HUSQFGE2C4",1474877677652,45,2902,158,362,"Half","right","English",NA,8,6,757997
46,"A16KDMZ7CEDHNV:3PZDLQMM0UTXTC601395HUSQFGE2C4",1474877680640,46,2982,156,158,"Half","right","English",NA,8,6,757997
47,"A16KDMZ7CEDHNV:3PZDLQMM0UTXTC601395HUSQFGE2C4",1474877686760,47,6114,156,142,"Half","left","English",NA,8,6,757997
48,"A16KDMZ7CEDHNV:3PZDLQMM0UTXTC601395HUSQFGE2C4",1474877695658,48,8893,156,151,"Half","right","English",NA,8,6,757997
49,"A16KDMZ7CEDHNV:3PZDLQMM0UTXTC601395HUSQFGE2C4",1474877699326,49,3662,156,151,"Half","right","English",NA,8,6,757997
50,"A16KDMZ7CEDHNV:3PZDLQMM0UTXTC601395HUSQFGE2C4",1474877706343,50,7012,156,150,"Half","left","English",NA,8,6,757997
51,"A16KDMZ7CEDHNV:3PZDLQMM0UTXTC601395HUSQFGE2C4",1474877717641,1,4348,193,162,"Many","right","English",NA,8,6,757997
52,"A16KDMZ7CEDHNV:3PZDLQMM0UTXTC601395HUSQFGE2C4",1474877722750,2,5103,193,177,"Many","left","English",NA,8,6,757997
53,"A16KDMZ7CEDHNV:3PZDLQMM0UTXTC601395HUSQFGE2C4",1474877726779,3,4024,193,174,"Many","right","English",NA,8,6,757997
54,"A16KDMZ7CEDHNV:3PZDLQMM0UTXTC601395HUSQFGE2C4",1474877732114,4,5330,209,193,"Many","right","English",NA,8,6,757997
55,"A16KDMZ7CEDHNV:3PZDLQMM0UTXTC601395HUSQFGE2C4",1474877737220,5,5100,213,209,"Many","right","English",NA,8,6,757997
56,"A16KDMZ7CEDHNV:3PZDLQMM0UTXTC601395HUSQFGE2C4",1474877740289,6,3061,369,213,"Many","right","English",NA,8,6,757997
57,"A16KDMZ7CEDHNV:3PZDLQMM0UTXTC601395HUSQFGE2C4",1474877744281,7,3982,369,109,"Many","left","English",NA,8,6,757997
58,"A16KDMZ7CEDHNV:3PZDLQMM0UTXTC601395HUSQFGE2C4",1474877748655,8,4364,413,369,"Many","right","English",NA,8,6,757997
59,"A16KDMZ7CEDHNV:3PZDLQMM0UTXTC601395HUSQFGE2C4",1474877752462,9,3800,413,397,"Many","right","English",NA,8,6,757997
60,"A16KDMZ7CEDHNV:3PZDLQMM0UTXTC601395HUSQFGE2C4",1474877755485,10,3016,413,0,"Many","right","English",NA,8,6,757997
61,"A16KDMZ7CEDHNV:3PZDLQMM0UTXTC601395HUSQFGE2C4",1474877758378,11,2885,366,413,"Many","right","English",NA,8,6,757997
62,"A16KDMZ7CEDHNV:3PZDLQMM0UTXTC601395HUSQFGE2C4",1474877760915,12,2531,366,141,"Many","right","English",NA,8,6,757997
63,"A16KDMZ7CEDHNV:3PZDLQMM0UTXTC601395HUSQFGE2C4",1474877763746,13,2824,366,370,"Many","right","English",NA,8,6,757997
64,"A16KDMZ7CEDHNV:3PZDLQMM0UTXTC601395HUSQFGE2C4",1474877767186,14,3435,366,362,"Many","right","English",NA,8,6,757997
65,"A16KDMZ7CEDHNV:3PZDLQMM0UTXTC601395HUSQFGE2C4",1474877769728,15,2536,366,23,"Many","left","English",NA,8,6,757997
66,"A16KDMZ7CEDHNV:3PZDLQMM0UTXTC601395HUSQFGE2C4",1474877772544,16,2812,387,366,"Many","left","English",NA,8,6,757997
67,"A16KDMZ7CEDHNV:3PZDLQMM0UTXTC601395HUSQFGE2C4",1474877775837,17,3288,387,422,"Many","right","English",NA,8,6,757997
68,"A16KDMZ7CEDHNV:3PZDLQMM0UTXTC601395HUSQFGE2C4",1474877778570,18,2727,369,387,"Many","right","English",NA,8,6,757997
69,"A16KDMZ7CEDHNV:3PZDLQMM0UTXTC601395HUSQFGE2C4",1474877781355,19,2781,360,369,"Many","right","English",NA,8,6,757997
70,"A16KDMZ7CEDHNV:3PZDLQMM0UTXTC601395HUSQFGE2C4",1474877784754,20,3394,360,355,"Many","right","English",NA,8,6,757997
71,"A16KDMZ7CEDHNV:3PZDLQMM0UTXTC601395HUSQFGE2C4",1474877788326,21,3570,360,40,"Many","right","English",NA,8,6,757997
72,"A16KDMZ7CEDHNV:3PZDLQMM0UTXTC601395HUSQFGE2C4",1474877793314,22,4983,360,288,"Many","left","English",NA,8,6,757997
73,"A16KDMZ7CEDHNV:3PZDLQMM0UTXTC601395HUSQFGE2C4",1474877796289,23,2971,360,230,"Many","left","English",NA,8,6,757997
74,"A16KDMZ7CEDHNV:3PZDLQMM0UTXTC601395HUSQFGE2C4",1474877800501,24,4208,362,360,"Many","right","English",NA,8,6,757997
75,"A16KDMZ7CEDHNV:3PZDLQMM0UTXTC601395HUSQFGE2C4",1474877803692,25,3187,362,264,"Many","left","English",NA,8,6,757997
76,"A16KDMZ7CEDHNV:3PZDLQMM0UTXTC601395HUSQFGE2C4",1474877807064,26,3366,344,362,"Many","left","English",NA,8,6,757997
77,"A16KDMZ7CEDHNV:3PZDLQMM0UTXTC601395HUSQFGE2C4",1474877812328,27,5259,359,344,"Many","right","English",NA,8,6,757997
78,"A16KDMZ7CEDHNV:3PZDLQMM0UTXTC601395HUSQFGE2C4",1474877815433,28,3096,359,45,"Many","left","English",NA,8,6,757997
79,"A16KDMZ7CEDHNV:3PZDLQMM0UTXTC601395HUSQFGE2C4",1474877819839,29,4396,359,361,"Many","right","English",NA,8,6,757997
80,"A16KDMZ7CEDHNV:3PZDLQMM0UTXTC601395HUSQFGE2C4",1474877824949,30,5104,359,361,"Many","right","English",NA,8,6,757997
81,"A16KDMZ7CEDHNV:3PZDLQMM0UTXTC601395HUSQFGE2C4",1474877829606,31,4652,359,354,"Many","right","English",NA,8,6,757997
82,"A16KDMZ7CEDHNV:3PZDLQMM0UTXTC601395HUSQFGE2C4",1474877833125,32,3512,359,362,"Many","left","English",NA,8,6,757997
83,"A16KDMZ7CEDHNV:3PZDLQMM0UTXTC601395HUSQFGE2C4",1474877838542,33,5412,374,359,"Many","right","English",NA,8,6,757997
84,"A16KDMZ7CEDHNV:3PZDLQMM0UTXTC601395HUSQFGE2C4",1474877842572,34,4025,364,374,"Many","left","English",NA,8,6,757997
85,"A16KDMZ7CEDHNV:3PZDLQMM0UTXTC601395HUSQFGE2C4",1474877846051,35,3476,376,364,"Many","left","English",NA,8,6,757997
86,"A16KDMZ7CEDHNV:3PZDLQMM0UTXTC601395HUSQFGE2C4",1474877849520,36,3463,358,376,"Many","right","English",NA,8,6,757997
87,"A16KDMZ7CEDHNV:3PZDLQMM0UTXTC601395HUSQFGE2C4",1474877852801,37,3275,349,358,"Many","right","English",NA,8,6,757997
88,"A16KDMZ7CEDHNV:3PZDLQMM0UTXTC601395HUSQFGE2C4",1474877856029,38,3224,349,343,"Many","right","English",NA,8,6,757997
89,"A16KDMZ7CEDHNV:3PZDLQMM0UTXTC601395HUSQFGE2C4",1474877861643,39,5607,349,393,"Many","right","English",NA,8,6,757997
90,"A16KDMZ7CEDHNV:3PZDLQMM0UTXTC601395HUSQFGE2C4",1474877866041,40,4392,356,349,"Many","left","English",NA,8,6,757997
91,"A16KDMZ7CEDHNV:3PZDLQMM0UTXTC601395HUSQFGE2C4",1474877868939,41,2896,345,356,"Many","left","English",NA,8,6,757997
92,"A16KDMZ7CEDHNV:3PZDLQMM0UTXTC601395HUSQFGE2C4",1474877872643,42,3699,345,334,"Many","left","English",NA,8,6,757997
93,"A16KDMZ7CEDHNV:3PZDLQMM0UTXTC601395HUSQFGE2C4",1474877878312,43,5663,352,345,"Many","left","English",NA,8,6,757997
94,"A16KDMZ7CEDHNV:3PZDLQMM0UTXTC601395HUSQFGE2C4",1474877882764,44,4444,352,337,"Many","left","English",NA,8,6,757997
95,"A16KDMZ7CEDHNV:3PZDLQMM0UTXTC601395HUSQFGE2C4",1474877887145,45,4375,352,352,"Many","right","English",NA,8,6,757997
96,"A16KDMZ7CEDHNV:3PZDLQMM0UTXTC601395HUSQFGE2C4",1474877889657,46,2507,356,352,"Many","right","English",NA,8,6,757997
97,"A16KDMZ7CEDHNV:3PZDLQMM0UTXTC601395HUSQFGE2C4",1474877892689,47,3027,356,157,"Many","left","English",NA,8,6,757997
98,"A16KDMZ7CEDHNV:3PZDLQMM0UTXTC601395HUSQFGE2C4",1474877895105,48,2410,356,340,"Many","left","English",NA,8,6,757997
99,"A16KDMZ7CEDHNV:3PZDLQMM0UTXTC601395HUSQFGE2C4",1474877897891,49,2780,356,7,"Many","left","English",NA,8,6,757997
100,"A16KDMZ7CEDHNV:3PZDLQMM0UTXTC601395HUSQFGE2C4",1474877901246,50,3349,356,358,"Many","left","English",NA,8,6,757997
101,"A16KDMZ7CEDHNV:3PZDLQMM0UTXTC601395HUSQFGE2C4",1474877909400,1,4746,164,316,"Few","right","English",NA,8,6,757997
102,"A16KDMZ7CEDHNV:3PZDLQMM0UTXTC601395HUSQFGE2C4",1474877915451,2,6045,164,179,"Few","left","English",NA,8,6,757997
103,"A16KDMZ7CEDHNV:3PZDLQMM0UTXTC601395HUSQFGE2C4",1474877919401,3,3947,164,152,"Few","left","English",NA,8,6,757997
104,"A16KDMZ7CEDHNV:3PZDLQMM0UTXTC601395HUSQFGE2C4",1474877924281,4,4876,164,153,"Few","left","English",NA,8,6,757997
105,"A16KDMZ7CEDHNV:3PZDLQMM0UTXTC601395HUSQFGE2C4",1474877928050,5,3764,164,169,"Few","right","English",NA,8,6,757997
106,"A16KDMZ7CEDHNV:3PZDLQMM0UTXTC601395HUSQFGE2C4",1474877932811,6,4756,164,184,"Few","right","English",NA,8,6,757997
107,"A16KDMZ7CEDHNV:3PZDLQMM0UTXTC601395HUSQFGE2C4",1474877936783,7,3969,162,164,"Few","right","English",NA,8,6,757997
108,"A16KDMZ7CEDHNV:3PZDLQMM0UTXTC601395HUSQFGE2C4",1474877939806,8,3018,160,162,"Few","right","English",NA,8,6,757997
109,"A16KDMZ7CEDHNV:3PZDLQMM0UTXTC601395HUSQFGE2C4",1474877943864,9,4051,160,145,"Few","right","English",NA,8,6,757997
110,"A16KDMZ7CEDHNV:3PZDLQMM0UTXTC601395HUSQFGE2C4",1474877947183,10,3310,28,160,"Few","left","English",NA,8,6,757997
111,"A16KDMZ7CEDHNV:3PZDLQMM0UTXTC601395HUSQFGE2C4",1474877950656,11,3464,28,46,"Few","right","English",NA,8,6,757997
112,"A16KDMZ7CEDHNV:3PZDLQMM0UTXTC601395HUSQFGE2C4",1474877954390,12,3725,28,40,"Few","left","English",NA,8,6,757997
113,"A16KDMZ7CEDHNV:3PZDLQMM0UTXTC601395HUSQFGE2C4",1474877957609,13,3212,28,40,"Few","left","English",NA,8,6,757997
114,"A16KDMZ7CEDHNV:3PZDLQMM0UTXTC601395HUSQFGE2C4",1474877960349,14,2731,28,376,"Few","right","English",NA,8,6,757997
115,"A16KDMZ7CEDHNV:3PZDLQMM0UTXTC601395HUSQFGE2C4",1474877963297,15,2942,28,45,"Few","right","English",NA,8,6,757997
116,"A16KDMZ7CEDHNV:3PZDLQMM0UTXTC601395HUSQFGE2C4",1474877966589,16,3287,13,28,"Few","left","English",NA,8,6,757997
117,"A16KDMZ7CEDHNV:3PZDLQMM0UTXTC601395HUSQFGE2C4",1474877969290,17,2694,13,168,"Few","right","English",NA,8,6,757997
118,"A16KDMZ7CEDHNV:3PZDLQMM0UTXTC601395HUSQFGE2C4",1474877974486,18,5191,13,25,"Few","right","English",NA,8,6,757997
119,"A16KDMZ7CEDHNV:3PZDLQMM0UTXTC601395HUSQFGE2C4",1474877977304,19,2812,13,24,"Few","right","English",NA,8,6,757997
120,"A16KDMZ7CEDHNV:3PZDLQMM0UTXTC601395HUSQFGE2C4",1474877980921,20,3611,13,50,"Few","right","English",NA,8,6,757997
121,"A16KDMZ7CEDHNV:3PZDLQMM0UTXTC601395HUSQFGE2C4",1474877983514,21,2587,13,348,"Few","left","English",NA,8,6,757997
122,"A16KDMZ7CEDHNV:3PZDLQMM0UTXTC601395HUSQFGE2C4",1474877986632,22,3112,13,179,"Few","right","English",NA,8,6,757997
123,"A16KDMZ7CEDHNV:3PZDLQMM0UTXTC601395HUSQFGE2C4",1474877990000,23,3364,13,32,"Few","left","English",NA,8,6,757997
124,"A16KDMZ7CEDHNV:3PZDLQMM0UTXTC601395HUSQFGE2C4",1474877994162,24,4157,6,13,"Few","right","English",NA,8,6,757997
125,"A16KDMZ7CEDHNV:3PZDLQMM0UTXTC601395HUSQFGE2C4",1474877998184,25,4017,12,6,"Few","right","English",NA,8,6,757997
126,"A16KDMZ7CEDHNV:3PZDLQMM0UTXTC601395HUSQFGE2C4",1474878001536,26,3347,12,283,"Few","right","English",NA,8,6,757997
127,"A16KDMZ7CEDHNV:3PZDLQMM0UTXTC601395HUSQFGE2C4",1474878004098,27,2558,12,91,"Few","left","English",NA,8,6,757997
128,"A16KDMZ7CEDHNV:3PZDLQMM0UTXTC601395HUSQFGE2C4",1474878007306,28,3204,12,138,"Few","left","English",NA,8,6,757997
129,"A16KDMZ7CEDHNV:3PZDLQMM0UTXTC601395HUSQFGE2C4",1474878009836,29,2520,12,387,"Few","right","English",NA,8,6,757997
130,"A16KDMZ7CEDHNV:3PZDLQMM0UTXTC601395HUSQFGE2C4",1474878012736,30,2893,12,17,"Few","right","English",NA,8,6,757997
131,"A16KDMZ7CEDHNV:3PZDLQMM0UTXTC601395HUSQFGE2C4",1474878016845,31,4103,12,17,"Few","left","English",NA,8,6,757997
132,"A16KDMZ7CEDHNV:3PZDLQMM0UTXTC601395HUSQFGE2C4",1474878019905,32,3054,12,432,"Few","right","English",NA,8,6,757997
133,"A16KDMZ7CEDHNV:3PZDLQMM0UTXTC601395HUSQFGE2C4",1474878023103,33,3192,12,18,"Few","right","English",NA,8,6,757997
134,"A16KDMZ7CEDHNV:3PZDLQMM0UTXTC601395HUSQFGE2C4",1474878026011,34,2903,12,345,"Few","left","English",NA,8,6,757997
135,"A16KDMZ7CEDHNV:3PZDLQMM0UTXTC601395HUSQFGE2C4",1474878029095,35,3078,12,124,"Few","right","English",NA,8,6,757997
136,"A16KDMZ7CEDHNV:3PZDLQMM0UTXTC601395HUSQFGE2C4",1474878031595,36,2496,12,12,"Few","right","English",NA,8,6,757997
137,"A16KDMZ7CEDHNV:3PZDLQMM0UTXTC601395HUSQFGE2C4",1474878035225,37,3625,174,12,"Few","right","English",NA,8,6,757997
138,"A16KDMZ7CEDHNV:3PZDLQMM0UTXTC601395HUSQFGE2C4",1474878039389,38,4159,177,174,"Few","left","English",NA,8,6,757997
139,"A16KDMZ7CEDHNV:3PZDLQMM0UTXTC601395HUSQFGE2C4",1474878042102,39,2707,177,379,"Few","right","English",NA,8,6,757997
140,"A16KDMZ7CEDHNV:3PZDLQMM0UTXTC601395HUSQFGE2C4",1474878046724,40,4617,177,178,"Few","right","English",NA,8,6,757997
141,"A16KDMZ7CEDHNV:3PZDLQMM0UTXTC601395HUSQFGE2C4",1474878049845,41,3116,177,417,"Few","left","English",NA,8,6,757997
142,"A16KDMZ7CEDHNV:3PZDLQMM0UTXTC601395HUSQFGE2C4",1474878053510,42,3662,42,177,"Few","right","English",NA,8,6,757997
143,"A16KDMZ7CEDHNV:3PZDLQMM0UTXTC601395HUSQFGE2C4",1474878056403,43,2888,42,56,"Few","right","English",NA,8,6,757997
144,"A16KDMZ7CEDHNV:3PZDLQMM0UTXTC601395HUSQFGE2C4",1474878059302,44,2894,42,190,"Few","right","English",NA,8,6,757997
145,"A16KDMZ7CEDHNV:3PZDLQMM0UTXTC601395HUSQFGE2C4",1474878061306,45,2001,42,396,"Few","right","English",NA,8,6,757997
146,"A16KDMZ7CEDHNV:3PZDLQMM0UTXTC601395HUSQFGE2C4",1474878064504,46,3192,42,44,"Few","left","English",NA,8,6,757997
147,"A16KDMZ7CEDHNV:3PZDLQMM0UTXTC601395HUSQFGE2C4",1474878067591,47,3084,42,38,"Few","left","English",NA,8,6,757997
148,"A16KDMZ7CEDHNV:3PZDLQMM0UTXTC601395HUSQFGE2C4",1474878069934,48,2339,42,74,"Few","left","English",NA,8,6,757997
149,"A16KDMZ7CEDHNV:3PZDLQMM0UTXTC601395HUSQFGE2C4",1474878073322,49,3384,42,98,"Few","right","English",NA,8,6,757997
150,"A16KDMZ7CEDHNV:3PZDLQMM0UTXTC601395HUSQFGE2C4",1474878076375,50,3050,40,42,"Few","right","English",NA,8,6,757997
151,"A16KDMZ7CEDHNV:3PZDLQMM0UTXTC601395HUSQFGE2C4",1474878084304,1,3588,417,393,"Most","left","English",NA,8,6,757997
152,"A16KDMZ7CEDHNV:3PZDLQMM0UTXTC601395HUSQFGE2C4",1474878087054,2,2742,417,41,"Most","right","English",NA,8,6,757997
153,"A16KDMZ7CEDHNV:3PZDLQMM0UTXTC601395HUSQFGE2C4",1474878089907,3,2846,422,417,"Most","left","English",NA,8,6,757997
154,"A16KDMZ7CEDHNV:3PZDLQMM0UTXTC601395HUSQFGE2C4",1474878092859,4,2947,422,421,"Most","left","English",NA,8,6,757997
155,"A16KDMZ7CEDHNV:3PZDLQMM0UTXTC601395HUSQFGE2C4",1474878095653,5,2790,422,416,"Most","right","English",NA,8,6,757997
156,"A16KDMZ7CEDHNV:3PZDLQMM0UTXTC601395HUSQFGE2C4",1474878099268,6,3608,411,422,"Most","right","English",NA,8,6,757997
157,"A16KDMZ7CEDHNV:3PZDLQMM0UTXTC601395HUSQFGE2C4",1474878101748,7,2474,411,330,"Most","left","English",NA,8,6,757997
158,"A16KDMZ7CEDHNV:3PZDLQMM0UTXTC601395HUSQFGE2C4",1474878104610,8,2857,410,411,"Most","left","English",NA,8,6,757997
159,"A16KDMZ7CEDHNV:3PZDLQMM0UTXTC601395HUSQFGE2C4",1474878107630,9,3014,410,400,"Most","left","English",NA,8,6,757997
160,"A16KDMZ7CEDHNV:3PZDLQMM0UTXTC601395HUSQFGE2C4",1474878110031,10,2395,410,204,"Most","right","English",NA,8,6,757997
161,"A16KDMZ7CEDHNV:3PZDLQMM0UTXTC601395HUSQFGE2C4",1474878113428,11,3394,400,410,"Most","left","English",NA,8,6,757997
162,"A16KDMZ7CEDHNV:3PZDLQMM0UTXTC601395HUSQFGE2C4",1474878117450,12,4020,390,400,"Most","right","English",NA,8,6,757997
163,"A16KDMZ7CEDHNV:3PZDLQMM0UTXTC601395HUSQFGE2C4",1474878120450,13,2995,390,244,"Most","right","English",NA,8,6,757997
164,"A16KDMZ7CEDHNV:3PZDLQMM0UTXTC601395HUSQFGE2C4",1474878123640,14,3185,390,79,"Most","left","English",NA,8,6,757997
165,"A16KDMZ7CEDHNV:3PZDLQMM0UTXTC601395HUSQFGE2C4",1474878127895,15,4251,383,390,"Most","left","English",NA,8,6,757997
166,"A16KDMZ7CEDHNV:3PZDLQMM0UTXTC601395HUSQFGE2C4",1474878130930,16,3031,391,383,"Most","right","English",NA,8,6,757997
167,"A16KDMZ7CEDHNV:3PZDLQMM0UTXTC601395HUSQFGE2C4",1474878135960,17,5025,391,372,"Most","left","English",NA,8,6,757997
168,"A16KDMZ7CEDHNV:3PZDLQMM0UTXTC601395HUSQFGE2C4",1474878139762,18,3797,391,106,"Most","left","English",NA,8,6,757997
169,"A16KDMZ7CEDHNV:3PZDLQMM0UTXTC601395HUSQFGE2C4",1474878143821,19,4054,373,391,"Most","right","English",NA,8,6,757997
170,"A16KDMZ7CEDHNV:3PZDLQMM0UTXTC601395HUSQFGE2C4",1474878148617,20,4788,382,373,"Most","left","English",NA,8,6,757997
171,"A16KDMZ7CEDHNV:3PZDLQMM0UTXTC601395HUSQFGE2C4",1474878152131,21,3506,382,384,"Most","right","English",NA,8,6,757997
172,"A16KDMZ7CEDHNV:3PZDLQMM0UTXTC601395HUSQFGE2C4",1474878155986,22,3846,382,356,"Most","left","English",NA,8,6,757997
173,"A16KDMZ7CEDHNV:3PZDLQMM0UTXTC601395HUSQFGE2C4",1474878159408,23,3414,382,85,"Most","left","English",NA,8,6,757997
174,"A16KDMZ7CEDHNV:3PZDLQMM0UTXTC601395HUSQFGE2C4",1474878162976,24,3560,369,382,"Most","right","English",NA,8,6,757997
175,"A16KDMZ7CEDHNV:3PZDLQMM0UTXTC601395HUSQFGE2C4",1474878166330,25,3348,369,329,"Most","left","English",NA,8,6,757997
176,"A16KDMZ7CEDHNV:3PZDLQMM0UTXTC601395HUSQFGE2C4",1474878170246,26,3910,369,374,"Most","right","English",NA,8,6,757997
177,"A16KDMZ7CEDHNV:3PZDLQMM0UTXTC601395HUSQFGE2C4",1474878173600,27,3348,369,241,"Most","left","English",NA,8,6,757997
178,"A16KDMZ7CEDHNV:3PZDLQMM0UTXTC601395HUSQFGE2C4",1474878177332,28,3726,369,164,"Most","right","English",NA,8,6,757997
179,"A16KDMZ7CEDHNV:3PZDLQMM0UTXTC601395HUSQFGE2C4",1474878180092,29,2756,369,53,"Most","left","English",NA,8,6,757997
180,"A16KDMZ7CEDHNV:3PZDLQMM0UTXTC601395HUSQFGE2C4",1474878183965,30,3867,369,361,"Most","right","English",NA,8,6,757997
181,"A16KDMZ7CEDHNV:3PZDLQMM0UTXTC601395HUSQFGE2C4",1474878187142,31,3171,369,223,"Most","right","English",NA,8,6,757997
182,"A16KDMZ7CEDHNV:3PZDLQMM0UTXTC601395HUSQFGE2C4",1474878191953,32,4807,354,369,"Most","left","English",NA,8,6,757997
183,"A16KDMZ7CEDHNV:3PZDLQMM0UTXTC601395HUSQFGE2C4",1474878195292,33,3332,354,160,"Most","right","English",NA,8,6,757997
184,"A16KDMZ7CEDHNV:3PZDLQMM0UTXTC601395HUSQFGE2C4",1474878198519,34,3222,354,65,"Most","right","English",NA,8,6,757997
185,"A16KDMZ7CEDHNV:3PZDLQMM0UTXTC601395HUSQFGE2C4",1474878203689,35,5165,354,116,"Most","left","English",NA,8,6,757997
186,"A16KDMZ7CEDHNV:3PZDLQMM0UTXTC601395HUSQFGE2C4",1474878207201,36,3508,354,344,"Most","right","English",NA,8,6,757997
187,"A16KDMZ7CEDHNV:3PZDLQMM0UTXTC601395HUSQFGE2C4",1474878210881,37,3672,335,354,"Most","left","English",NA,8,6,757997
188,"A16KDMZ7CEDHNV:3PZDLQMM0UTXTC601395HUSQFGE2C4",1474878214532,38,3641,335,97,"Most","left","English",NA,8,6,757997
189,"A16KDMZ7CEDHNV:3PZDLQMM0UTXTC601395HUSQFGE2C4",1474878217699,39,3159,335,276,"Most","right","English",NA,8,6,757997
190,"A16KDMZ7CEDHNV:3PZDLQMM0UTXTC601395HUSQFGE2C4",1474878223385,40,5678,335,336,"Most","left","English",NA,8,6,757997
191,"A16KDMZ7CEDHNV:3PZDLQMM0UTXTC601395HUSQFGE2C4",1474878226783,41,3392,335,339,"Most","left","English",NA,8,6,757997
192,"A16KDMZ7CEDHNV:3PZDLQMM0UTXTC601395HUSQFGE2C4",1474878230847,42,4057,345,335,"Most","right","English",NA,8,6,757997
193,"A16KDMZ7CEDHNV:3PZDLQMM0UTXTC601395HUSQFGE2C4",1474878233821,43,2966,390,345,"Most","left","English",NA,8,6,757997
194,"A16KDMZ7CEDHNV:3PZDLQMM0UTXTC601395HUSQFGE2C4",1474878237301,44,3476,390,373,"Most","right","English",NA,8,6,757997
195,"A16KDMZ7CEDHNV:3PZDLQMM0UTXTC601395HUSQFGE2C4",1474878240164,45,2859,396,390,"Most","right","English",NA,8,6,757997
196,"A16KDMZ7CEDHNV:3PZDLQMM0UTXTC601395HUSQFGE2C4",1474878243214,46,3046,396,390,"Most","left","English",NA,8,6,757997
197,"A16KDMZ7CEDHNV:3PZDLQMM0UTXTC601395HUSQFGE2C4",1474878247787,47,4569,396,406,"Most","left","English",NA,8,6,757997
198,"A16KDMZ7CEDHNV:3PZDLQMM0UTXTC601395HUSQFGE2C4",1474878252768,48,4977,396,153,"Most","right","English",NA,8,6,757997
199,"A16KDMZ7CEDHNV:3PZDLQMM0UTXTC601395HUSQFGE2C4",1474878255939,49,3168,396,1,"Most","left","English",NA,8,6,757997
200,"A16KDMZ7CEDHNV:3PZDLQMM0UTXTC601395HUSQFGE2C4",1474878259886,50,3942,396,386,"Most","right","English",NA,8,6,757997
201,"A17PAQSQ74L915:3AAJC4I4FH0A71FI02Z5R9FSQ9LZJM",1474876876998,1,3991,25,294,"Few","right","English",NA,7,3,487803
202,"A17PAQSQ74L915:3AAJC4I4FH0A71FI02Z5R9FSQ9LZJM",1474876882690,2,5691,25,115,"Few","right","English",NA,7,3,487803
203,"A17PAQSQ74L915:3AAJC4I4FH0A71FI02Z5R9FSQ9LZJM",1474876887266,3,4574,25,34,"Few","left","English",NA,7,3,487803
204,"A17PAQSQ74L915:3AAJC4I4FH0A71FI02Z5R9FSQ9LZJM",1474876890966,4,3698,25,19,"Few","left","English",NA,7,3,487803
205,"A17PAQSQ74L915:3AAJC4I4FH0A71FI02Z5R9FSQ9LZJM",1474876895901,5,4934,30,25,"Few","left","English",NA,7,3,487803
206,"A17PAQSQ74L915:3AAJC4I4FH0A71FI02Z5R9FSQ9LZJM",1474876899764,6,3861,26,30,"Few","right","English",NA,7,3,487803
207,"A17PAQSQ74L915:3AAJC4I4FH0A71FI02Z5R9FSQ9LZJM",1474876902031,7,2266,26,242,"Few","right","English",NA,7,3,487803
208,"A17PAQSQ74L915:3AAJC4I4FH0A71FI02Z5R9FSQ9LZJM",1474876904854,8,2823,37,26,"Few","right","English",NA,7,3,487803
209,"A17PAQSQ74L915:3AAJC4I4FH0A71FI02Z5R9FSQ9LZJM",1474876906761,9,1906,37,181,"Few","right","English",NA,7,3,487803
210,"A17PAQSQ74L915:3AAJC4I4FH0A71FI02Z5R9FSQ9LZJM",1474876909367,10,2605,23,37,"Few","right","English",NA,7,3,487803
211,"A17PAQSQ74L915:3AAJC4I4FH0A71FI02Z5R9FSQ9LZJM",1474876911106,11,1736,23,394,"Few","left","English",NA,7,3,487803
212,"A17PAQSQ74L915:3AAJC4I4FH0A71FI02Z5R9FSQ9LZJM",1474876913485,12,2378,14,23,"Few","left","English",NA,7,3,487803
213,"A17PAQSQ74L915:3AAJC4I4FH0A71FI02Z5R9FSQ9LZJM",1474876916220,13,2733,14,421,"Few","right","English",NA,7,3,487803
214,"A17PAQSQ74L915:3AAJC4I4FH0A71FI02Z5R9FSQ9LZJM",1474876919150,14,2928,14,178,"Few","left","English",NA,7,3,487803
215,"A17PAQSQ74L915:3AAJC4I4FH0A71FI02Z5R9FSQ9LZJM",1474876921102,15,1950,14,97,"Few","right","English",NA,7,3,487803
216,"A17PAQSQ74L915:3AAJC4I4FH0A71FI02Z5R9FSQ9LZJM",1474876923215,16,2110,14,33,"Few","left","English",NA,7,3,487803
217,"A17PAQSQ74L915:3AAJC4I4FH0A71FI02Z5R9FSQ9LZJM",1474876925393,17,2177,14,165,"Few","right","English",NA,7,3,487803
218,"A17PAQSQ74L915:3AAJC4I4FH0A71FI02Z5R9FSQ9LZJM",1474876927316,18,1921,14,127,"Few","left","English",NA,7,3,487803
219,"A17PAQSQ74L915:3AAJC4I4FH0A71FI02Z5R9FSQ9LZJM",1474876928905,19,1588,14,394,"Few","left","English",NA,7,3,487803
220,"A17PAQSQ74L915:3AAJC4I4FH0A71FI02Z5R9FSQ9LZJM",1474876930779,20,1872,14,14,"Few","left","English",NA,7,3,487803
221,"A17PAQSQ74L915:3AAJC4I4FH0A71FI02Z5R9FSQ9LZJM",1474876932799,21,2019,14,193,"Few","right","English",NA,7,3,487803
222,"A17PAQSQ74L915:3AAJC4I4FH0A71FI02Z5R9FSQ9LZJM",1474876937618,22,4817,10,14,"Few","left","English",NA,7,3,487803
223,"A17PAQSQ74L915:3AAJC4I4FH0A71FI02Z5R9FSQ9LZJM",1474876942571,23,4953,5,10,"Few","left","English",NA,7,3,487803
224,"A17PAQSQ74L915:3AAJC4I4FH0A71FI02Z5R9FSQ9LZJM",1474876945577,24,3005,5,421,"Few","right","English",NA,7,3,487803
225,"A17PAQSQ74L915:3AAJC4I4FH0A71FI02Z5R9FSQ9LZJM",1474876947310,25,1732,5,425,"Few","left","English",NA,7,3,487803
226,"A17PAQSQ74L915:3AAJC4I4FH0A71FI02Z5R9FSQ9LZJM",1474876949887,26,2576,5,24,"Few","right","English",NA,7,3,487803
227,"A17PAQSQ74L915:3AAJC4I4FH0A71FI02Z5R9FSQ9LZJM",1474876951294,27,1404,5,417,"Few","right","English",NA,7,3,487803
228,"A17PAQSQ74L915:3AAJC4I4FH0A71FI02Z5R9FSQ9LZJM",1474876953138,28,1842,5,24,"Few","left","English",NA,7,3,487803
229,"A17PAQSQ74L915:3AAJC4I4FH0A71FI02Z5R9FSQ9LZJM",1474876954428,29,1287,5,69,"Few","left","English",NA,7,3,487803
230,"A17PAQSQ74L915:3AAJC4I4FH0A71FI02Z5R9FSQ9LZJM",1474876958968,30,4538,5,5,"Few","right","English",NA,7,3,487803
231,"A17PAQSQ74L915:3AAJC4I4FH0A71FI02Z5R9FSQ9LZJM",1474876960952,31,1982,5,248,"Few","right","English",NA,7,3,487803
232,"A17PAQSQ74L915:3AAJC4I4FH0A71FI02Z5R9FSQ9LZJM",1474876963404,32,2449,5,24,"Few","right","English",NA,7,3,487803
233,"A17PAQSQ74L915:3AAJC4I4FH0A71FI02Z5R9FSQ9LZJM",1474876966550,33,3144,5,3,"Few","right","English",NA,7,3,487803
234,"A17PAQSQ74L915:3AAJC4I4FH0A71FI02Z5R9FSQ9LZJM",1474876967837,34,1284,5,168,"Few","right","English",NA,7,3,487803
235,"A17PAQSQ74L915:3AAJC4I4FH0A71FI02Z5R9FSQ9LZJM",1474876969994,35,2156,3,5,"Few","right","English",NA,7,3,487803
236,"A17PAQSQ74L915:3AAJC4I4FH0A71FI02Z5R9FSQ9LZJM",1474876973613,36,3617,3,80,"Few","left","English",NA,7,3,487803
237,"A17PAQSQ74L915:3AAJC4I4FH0A71FI02Z5R9FSQ9LZJM",1474876975826,37,2212,3,154,"Few","right","English",NA,7,3,487803
238,"A17PAQSQ74L915:3AAJC4I4FH0A71FI02Z5R9FSQ9LZJM",1474876978341,38,2514,312,3,"Few","right","English",NA,7,3,487803
239,"A17PAQSQ74L915:3AAJC4I4FH0A71FI02Z5R9FSQ9LZJM",1474876982499,39,4157,204,312,"Few","left","English",NA,7,3,487803
240,"A17PAQSQ74L915:3AAJC4I4FH0A71FI02Z5R9FSQ9LZJM",1474876985410,40,2910,397,204,"Few","left","English",NA,7,3,487803
241,"A17PAQSQ74L915:3AAJC4I4FH0A71FI02Z5R9FSQ9LZJM",1474876987593,41,2182,67,397,"Few","right","English",NA,7,3,487803
242,"A17PAQSQ74L915:3AAJC4I4FH0A71FI02Z5R9FSQ9LZJM",1474876989361,42,1766,37,67,"Few","right","English",NA,7,3,487803
243,"A17PAQSQ74L915:3AAJC4I4FH0A71FI02Z5R9FSQ9LZJM",1474876990782,43,1421,37,342,"Few","right","English",NA,7,3,487803
244,"A17PAQSQ74L915:3AAJC4I4FH0A71FI02Z5R9FSQ9LZJM",1474876994814,44,4031,24,37,"Few","left","English",NA,7,3,487803
245,"A17PAQSQ74L915:3AAJC4I4FH0A71FI02Z5R9FSQ9LZJM",1474876996494,45,1679,24,403,"Few","right","English",NA,7,3,487803
246,"A17PAQSQ74L915:3AAJC4I4FH0A71FI02Z5R9FSQ9LZJM",1474876999296,46,2801,23,24,"Few","right","English",NA,7,3,487803
247,"A17PAQSQ74L915:3AAJC4I4FH0A71FI02Z5R9FSQ9LZJM",1474877001308,47,2009,23,259,"Few","left","English",NA,7,3,487803
248,"A17PAQSQ74L915:3AAJC4I4FH0A71FI02Z5R9FSQ9LZJM",1474877003392,48,2083,23,42,"Few","right","English",NA,7,3,487803
249,"A17PAQSQ74L915:3AAJC4I4FH0A71FI02Z5R9FSQ9LZJM",1474877004548,49,1154,23,263,"Few","left","English",NA,7,3,487803
250,"A17PAQSQ74L915:3AAJC4I4FH0A71FI02Z5R9FSQ9LZJM",1474877006841,50,2292,35,23,"Few","right","English",NA,7,3,487803
251,"A17PAQSQ74L915:3AAJC4I4FH0A71FI02Z5R9FSQ9LZJM",1474877025308,1,5930,174,49,"About half","right","English",NA,7,3,487803
252,"A17PAQSQ74L915:3AAJC4I4FH0A71FI02Z5R9FSQ9LZJM",1474877027468,2,2159,79,174,"About half","left","English",NA,7,3,487803
253,"A17PAQSQ74L915:3AAJC4I4FH0A71FI02Z5R9FSQ9LZJM",1474877030908,3,3437,79,186,"About half","right","English",NA,7,3,487803
254,"A17PAQSQ74L915:3AAJC4I4FH0A71FI02Z5R9FSQ9LZJM",1474877032379,4,1469,79,254,"About half","right","English",NA,7,3,487803
255,"A17PAQSQ74L915:3AAJC4I4FH0A71FI02Z5R9FSQ9LZJM",1474877034376,5,1995,95,79,"About half","left","English",NA,7,3,487803
256,"A17PAQSQ74L915:3AAJC4I4FH0A71FI02Z5R9FSQ9LZJM",1474877037475,6,3098,95,83,"About half","left","English",NA,7,3,487803
257,"A17PAQSQ74L915:3AAJC4I4FH0A71FI02Z5R9FSQ9LZJM",1474877040846,7,3370,95,84,"About half","left","English",NA,7,3,487803
258,"A17PAQSQ74L915:3AAJC4I4FH0A71FI02Z5R9FSQ9LZJM",1474877045468,8,4622,95,96,"About half","right","English",NA,7,3,487803
259,"A17PAQSQ74L915:3AAJC4I4FH0A71FI02Z5R9FSQ9LZJM",1474877049543,9,4074,115,95,"About half","right","English",NA,7,3,487803
260,"A17PAQSQ74L915:3AAJC4I4FH0A71FI02Z5R9FSQ9LZJM",1474877053282,10,3739,115,68,"About half","right","English",NA,7,3,487803
261,"A17PAQSQ74L915:3AAJC4I4FH0A71FI02Z5R9FSQ9LZJM",1474877056659,11,3376,124,115,"About half","left","English",NA,7,3,487803
262,"A17PAQSQ74L915:3AAJC4I4FH0A71FI02Z5R9FSQ9LZJM",1474877058745,12,2084,124,112,"About half","left","English",NA,7,3,487803
263,"A17PAQSQ74L915:3AAJC4I4FH0A71FI02Z5R9FSQ9LZJM",1474877060640,13,1893,124,366,"About half","left","English",NA,7,3,487803
264,"A17PAQSQ74L915:3AAJC4I4FH0A71FI02Z5R9FSQ9LZJM",1474877062571,14,1928,132,124,"About half","right","English",NA,7,3,487803
265,"A17PAQSQ74L915:3AAJC4I4FH0A71FI02Z5R9FSQ9LZJM",1474877064612,15,2039,117,132,"About half","left","English",NA,7,3,487803
266,"A17PAQSQ74L915:3AAJC4I4FH0A71FI02Z5R9FSQ9LZJM",1474877065840,16,1227,117,407,"About half","right","English",NA,7,3,487803
267,"A17PAQSQ74L915:3AAJC4I4FH0A71FI02Z5R9FSQ9LZJM",1474877067784,17,1943,117,59,"About half","right","English",NA,7,3,487803
268,"A17PAQSQ74L915:3AAJC4I4FH0A71FI02Z5R9FSQ9LZJM",1474877069356,18,1571,135,117,"About half","left","English",NA,7,3,487803
269,"A17PAQSQ74L915:3AAJC4I4FH0A71FI02Z5R9FSQ9LZJM",1474877070429,19,1072,135,409,"About half","right","English",NA,7,3,487803
270,"A17PAQSQ74L915:3AAJC4I4FH0A71FI02Z5R9FSQ9LZJM",1474877071997,20,1566,141,135,"About half","left","English",NA,7,3,487803
271,"A17PAQSQ74L915:3AAJC4I4FH0A71FI02Z5R9FSQ9LZJM",1474877074463,21,2465,141,157,"About half","right","English",NA,7,3,487803
272,"A17PAQSQ74L915:3AAJC4I4FH0A71FI02Z5R9FSQ9LZJM",1474877076292,22,1827,161,141,"About half","right","English",NA,7,3,487803
273,"A17PAQSQ74L915:3AAJC4I4FH0A71FI02Z5R9FSQ9LZJM",1474877078306,23,2014,153,161,"About half","right","English",NA,7,3,487803
274,"A17PAQSQ74L915:3AAJC4I4FH0A71FI02Z5R9FSQ9LZJM",1474877080305,24,1999,153,259,"About half","left","English",NA,7,3,487803
275,"A17PAQSQ74L915:3AAJC4I4FH0A71FI02Z5R9FSQ9LZJM",1474877082531,25,2225,153,276,"About half","left","English",NA,7,3,487803
276,"A17PAQSQ74L915:3AAJC4I4FH0A71FI02Z5R9FSQ9LZJM",1474877084705,26,2174,153,22,"About half","left","English",NA,7,3,487803
277,"A17PAQSQ74L915:3AAJC4I4FH0A71FI02Z5R9FSQ9LZJM",1474877087087,27,2382,153,143,"About half","left","English",NA,7,3,487803
278,"A17PAQSQ74L915:3AAJC4I4FH0A71FI02Z5R9FSQ9LZJM",1474877088962,28,1874,167,153,"About half","left","English",NA,7,3,487803
279,"A17PAQSQ74L915:3AAJC4I4FH0A71FI02Z5R9FSQ9LZJM",1474877090865,29,1902,167,28,"About half","left","English",NA,7,3,487803
280,"A17PAQSQ74L915:3AAJC4I4FH0A71FI02Z5R9FSQ9LZJM",1474877093548,30,2682,167,143,"About half","right","English",NA,7,3,487803
281,"A17PAQSQ74L915:3AAJC4I4FH0A71FI02Z5R9FSQ9LZJM",1474877094707,31,1158,167,18,"About half","right","English",NA,7,3,487803
282,"A17PAQSQ74L915:3AAJC4I4FH0A71FI02Z5R9FSQ9LZJM",1474877096194,32,1487,167,376,"About half","right","English",NA,7,3,487803
283,"A17PAQSQ74L915:3AAJC4I4FH0A71FI02Z5R9FSQ9LZJM",1474877098575,33,2379,167,157,"About half","left","English",NA,7,3,487803
284,"A17PAQSQ74L915:3AAJC4I4FH0A71FI02Z5R9FSQ9LZJM",1474877100361,34,1785,167,156,"About half","right","English",NA,7,3,487803
285,"A17PAQSQ74L915:3AAJC4I4FH0A71FI02Z5R9FSQ9LZJM",1474877102322,35,1959,161,167,"About half","right","English",NA,7,3,487803
286,"A17PAQSQ74L915:3AAJC4I4FH0A71FI02Z5R9FSQ9LZJM",1474877104024,36,1701,161,176,"About half","left","English",NA,7,3,487803
287,"A17PAQSQ74L915:3AAJC4I4FH0A71FI02Z5R9FSQ9LZJM",1474877105473,37,1448,161,12,"About half","right","English",NA,7,3,487803
288,"A17PAQSQ74L915:3AAJC4I4FH0A71FI02Z5R9FSQ9LZJM",1474877107989,38,2515,153,161,"About half","right","English",NA,7,3,487803
289,"A17PAQSQ74L915:3AAJC4I4FH0A71FI02Z5R9FSQ9LZJM",1474877109610,39,1620,153,179,"About half","right","English",NA,7,3,487803
290,"A17PAQSQ74L915:3AAJC4I4FH0A71FI02Z5R9FSQ9LZJM",1474877110731,40,1120,153,35,"About half","left","English",NA,7,3,487803
291,"A17PAQSQ74L915:3AAJC4I4FH0A71FI02Z5R9FSQ9LZJM",1474877111943,41,1211,153,136,"About half","right","English",NA,7,3,487803
292,"A17PAQSQ74L915:3AAJC4I4FH0A71FI02Z5R9FSQ9LZJM",1474877113715,42,1772,153,137,"About half","left","English",NA,7,3,487803
293,"A17PAQSQ74L915:3AAJC4I4FH0A71FI02Z5R9FSQ9LZJM",1474877118121,43,4405,162,153,"About half","left","English",NA,7,3,487803
294,"A17PAQSQ74L915:3AAJC4I4FH0A71FI02Z5R9FSQ9LZJM",1474877119640,44,1518,162,327,"About half","left","English",NA,7,3,487803
295,"A17PAQSQ74L915:3AAJC4I4FH0A71FI02Z5R9FSQ9LZJM",1474877121410,45,1769,162,162,"About half","right","English",NA,7,3,487803
296,"A17PAQSQ74L915:3AAJC4I4FH0A71FI02Z5R9FSQ9LZJM",1474877122724,46,1313,142,162,"About half","right","English",NA,7,3,487803
297,"A17PAQSQ74L915:3AAJC4I4FH0A71FI02Z5R9FSQ9LZJM",1474877125851,47,3126,142,125,"About half","left","English",NA,7,3,487803
298,"A17PAQSQ74L915:3AAJC4I4FH0A71FI02Z5R9FSQ9LZJM",1474877126873,48,1020,142,360,"About half","left","English",NA,7,3,487803
299,"A17PAQSQ74L915:3AAJC4I4FH0A71FI02Z5R9FSQ9LZJM",1474877128363,49,1489,129,142,"About half","right","English",NA,7,3,487803
300,"A17PAQSQ74L915:3AAJC4I4FH0A71FI02Z5R9FSQ9LZJM",1474877130126,50,1760,187,129,"About half","right","English",NA,7,3,487803
301,"A17PAQSQ74L915:3AAJC4I4FH0A71FI02Z5R9FSQ9LZJM",1474877136327,1,5132,381,387,"Very few","left","English",NA,7,3,487803
302,"A17PAQSQ74L915:3AAJC4I4FH0A71FI02Z5R9FSQ9LZJM",1474877138800,2,2472,156,381,"Very few","left","English",NA,7,3,487803
303,"A17PAQSQ74L915:3AAJC4I4FH0A71FI02Z5R9FSQ9LZJM",1474877141121,3,2319,156,147,"Very few","right","English",NA,7,3,487803
304,"A17PAQSQ74L915:3AAJC4I4FH0A71FI02Z5R9FSQ9LZJM",1474877143162,4,2040,156,131,"Very few","right","English",NA,7,3,487803
305,"A17PAQSQ74L915:3AAJC4I4FH0A71FI02Z5R9FSQ9LZJM",1474877145230,5,2064,150,156,"Very few","right","English",NA,7,3,487803
306,"A17PAQSQ74L915:3AAJC4I4FH0A71FI02Z5R9FSQ9LZJM",1474877149357,6,4127,150,146,"Very few","right","English",NA,7,3,487803
307,"A17PAQSQ74L915:3AAJC4I4FH0A71FI02Z5R9FSQ9LZJM",1474877151194,7,1836,150,137,"Very few","right","English",NA,7,3,487803
308,"A17PAQSQ74L915:3AAJC4I4FH0A71FI02Z5R9FSQ9LZJM",1474877153120,8,1923,150,132,"Very few","right","English",NA,7,3,487803
309,"A17PAQSQ74L915:3AAJC4I4FH0A71FI02Z5R9FSQ9LZJM",1474877154917,9,1796,150,226,"Very few","right","English",NA,7,3,487803
310,"A17PAQSQ74L915:3AAJC4I4FH0A71FI02Z5R9FSQ9LZJM",1474877157569,10,2650,150,159,"Very few","left","English",NA,7,3,487803
311,"A17PAQSQ74L915:3AAJC4I4FH0A71FI02Z5R9FSQ9LZJM",1474877158902,11,1331,150,257,"Very few","left","English",NA,7,3,487803
312,"A17PAQSQ74L915:3AAJC4I4FH0A71FI02Z5R9FSQ9LZJM",1474877160986,12,2082,181,150,"Very few","right","English",NA,7,3,487803
313,"A17PAQSQ74L915:3AAJC4I4FH0A71FI02Z5R9FSQ9LZJM",1474877164309,13,3321,181,351,"Very few","right","English",NA,7,3,487803
314,"A17PAQSQ74L915:3AAJC4I4FH0A71FI02Z5R9FSQ9LZJM",1474877167707,14,3398,174,181,"Very few","right","English",NA,7,3,487803
315,"A17PAQSQ74L915:3AAJC4I4FH0A71FI02Z5R9FSQ9LZJM",1474877168911,15,1204,174,353,"Very few","left","English",NA,7,3,487803
316,"A17PAQSQ74L915:3AAJC4I4FH0A71FI02Z5R9FSQ9LZJM",1474877171658,16,2745,190,174,"Very few","right","English",NA,7,3,487803
317,"A17PAQSQ74L915:3AAJC4I4FH0A71FI02Z5R9FSQ9LZJM",1474877172606,17,947,190,422,"Very few","right","English",NA,7,3,487803
318,"A17PAQSQ74L915:3AAJC4I4FH0A71FI02Z5R9FSQ9LZJM",1474877221571,18,48964,190,379,"Very few","right","English",NA,7,3,487803
319,"A17PAQSQ74L915:3AAJC4I4FH0A71FI02Z5R9FSQ9LZJM",1474877223167,19,1595,190,207,"Very few","left","English",NA,7,3,487803
320,"A17PAQSQ74L915:3AAJC4I4FH0A71FI02Z5R9FSQ9LZJM",1474877227906,20,4738,190,179,"Very few","right","English",NA,7,3,487803
321,"A17PAQSQ74L915:3AAJC4I4FH0A71FI02Z5R9FSQ9LZJM",1474877229667,21,1759,175,190,"Very few","right","English",NA,7,3,487803
322,"A17PAQSQ74L915:3AAJC4I4FH0A71FI02Z5R9FSQ9LZJM",1474877232227,22,2558,211,175,"Very few","right","English",NA,7,3,487803
323,"A17PAQSQ74L915:3AAJC4I4FH0A71FI02Z5R9FSQ9LZJM",1474877234353,23,2123,201,211,"Very few","right","English",NA,7,3,487803
324,"A17PAQSQ74L915:3AAJC4I4FH0A71FI02Z5R9FSQ9LZJM",1474877236165,24,1811,202,201,"Very few","right","English",NA,7,3,487803
325,"A17PAQSQ74L915:3AAJC4I4FH0A71FI02Z5R9FSQ9LZJM",1474877237965,25,1799,220,202,"Very few","right","English",NA,7,3,487803
326,"A17PAQSQ74L915:3AAJC4I4FH0A71FI02Z5R9FSQ9LZJM",1474877241377,26,3411,220,236,"Very few","left","English",NA,7,3,487803
327,"A17PAQSQ74L915:3AAJC4I4FH0A71FI02Z5R9FSQ9LZJM",1474877244217,27,2835,220,226,"Very few","left","English",NA,7,3,487803
328,"A17PAQSQ74L915:3AAJC4I4FH0A71FI02Z5R9FSQ9LZJM",1474877245806,28,1587,205,220,"Very few","right","English",NA,7,3,487803
329,"A17PAQSQ74L915:3AAJC4I4FH0A71FI02Z5R9FSQ9LZJM",1474877249735,29,3926,204,205,"Very few","left","English",NA,7,3,487803
330,"A17PAQSQ74L915:3AAJC4I4FH0A71FI02Z5R9FSQ9LZJM",1474877252052,30,2315,204,185,"Very few","left","English",NA,7,3,487803
331,"A17PAQSQ74L915:3AAJC4I4FH0A71FI02Z5R9FSQ9LZJM",1474877253532,31,1479,204,197,"Very few","right","English",NA,7,3,487803
332,"A17PAQSQ74L915:3AAJC4I4FH0A71FI02Z5R9FSQ9LZJM",1474877255276,32,1744,204,259,"Very few","right","English",NA,7,3,487803
333,"A17PAQSQ74L915:3AAJC4I4FH0A71FI02Z5R9FSQ9LZJM",1474877260983,33,5706,211,204,"Very few","right","English",NA,7,3,487803
334,"A17PAQSQ74L915:3AAJC4I4FH0A71FI02Z5R9FSQ9LZJM",1474877262394,34,1410,211,207,"Very few","left","English",NA,7,3,487803
335,"A17PAQSQ74L915:3AAJC4I4FH0A71FI02Z5R9FSQ9LZJM",1474877263532,35,1137,211,430,"Very few","right","English",NA,7,3,487803
336,"A17PAQSQ74L915:3AAJC4I4FH0A71FI02Z5R9FSQ9LZJM",1474877265391,36,1858,93,211,"Very few","left","English",NA,7,3,487803
337,"A17PAQSQ74L915:3AAJC4I4FH0A71FI02Z5R9FSQ9LZJM",1474877266902,37,1508,93,265,"Very few","right","English",NA,7,3,487803
338,"A17PAQSQ74L915:3AAJC4I4FH0A71FI02Z5R9FSQ9LZJM",1474877267855,38,951,93,299,"Very few","left","English",NA,7,3,487803
339,"A17PAQSQ74L915:3AAJC4I4FH0A71FI02Z5R9FSQ9LZJM",1474877268966,39,1109,93,373,"Very few","left","English",NA,7,3,487803
340,"A17PAQSQ74L915:3AAJC4I4FH0A71FI02Z5R9FSQ9LZJM",1474877269762,40,794,93,426,"Very few","left","English",NA,7,3,487803
341,"A17PAQSQ74L915:3AAJC4I4FH0A71FI02Z5R9FSQ9LZJM",1474877271565,41,1802,93,106,"Very few","right","English",NA,7,3,487803
342,"A17PAQSQ74L915:3AAJC4I4FH0A71FI02Z5R9FSQ9LZJM",1474877273009,42,1443,93,95,"Very few","right","English",NA,7,3,487803
343,"A17PAQSQ74L915:3AAJC4I4FH0A71FI02Z5R9FSQ9LZJM",1474877274299,43,1287,93,95,"Very few","right","English",NA,7,3,487803
344,"A17PAQSQ74L915:3AAJC4I4FH0A71FI02Z5R9FSQ9LZJM",1474877275916,44,1616,93,139,"Very few","left","English",NA,7,3,487803
345,"A17PAQSQ74L915:3AAJC4I4FH0A71FI02Z5R9FSQ9LZJM",1474877276538,45,622,93,118,"Very few","left","English",NA,7,3,487803
346,"A17PAQSQ74L915:3AAJC4I4FH0A71FI02Z5R9FSQ9LZJM",1474877277648,46,1108,91,93,"Very few","right","English",NA,7,3,487803
347,"A17PAQSQ74L915:3AAJC4I4FH0A71FI02Z5R9FSQ9LZJM",1474877279356,47,1706,91,91,"Very few","right","English",NA,7,3,487803
348,"A17PAQSQ74L915:3AAJC4I4FH0A71FI02Z5R9FSQ9LZJM",1474877280802,48,1444,91,282,"Very few","right","English",NA,7,3,487803
349,"A17PAQSQ74L915:3AAJC4I4FH0A71FI02Z5R9FSQ9LZJM",1474877282107,49,1303,91,85,"Very few","left","English",NA,7,3,487803
350,"A17PAQSQ74L915:3AAJC4I4FH0A71FI02Z5R9FSQ9LZJM",1474877283237,50,1127,95,91,"Very few","right","English",NA,7,3,487803
351,"A17PAQSQ74L915:3AAJC4I4FH0A71FI02Z5R9FSQ9LZJM",1474877288623,1,4523,8,171,"Less than half","right","English",NA,7,3,487803
352,"A17PAQSQ74L915:3AAJC4I4FH0A71FI02Z5R9FSQ9LZJM",1474877289806,2,1182,8,428,"Less than half","right","English",NA,7,3,487803
353,"A17PAQSQ74L915:3AAJC4I4FH0A71FI02Z5R9FSQ9LZJM",1474877291357,3,1551,18,8,"Less than half","right","English",NA,7,3,487803
354,"A17PAQSQ74L915:3AAJC4I4FH0A71FI02Z5R9FSQ9LZJM",1474877293119,4,1760,18,248,"Less than half","left","English",NA,7,3,487803
355,"A17PAQSQ74L915:3AAJC4I4FH0A71FI02Z5R9FSQ9LZJM",1474877294736,5,1617,18,219,"Less than half","right","English",NA,7,3,487803
356,"A17PAQSQ74L915:3AAJC4I4FH0A71FI02Z5R9FSQ9LZJM",1474877296548,6,1811,18,20,"Less than half","right","English",NA,7,3,487803
357,"A17PAQSQ74L915:3AAJC4I4FH0A71FI02Z5R9FSQ9LZJM",1474877297767,7,1217,18,251,"Less than half","right","English",NA,7,3,487803
358,"A17PAQSQ74L915:3AAJC4I4FH0A71FI02Z5R9FSQ9LZJM",1474877299246,8,1478,18,262,"Less than half","left","English",NA,7,3,487803
359,"A17PAQSQ74L915:3AAJC4I4FH0A71FI02Z5R9FSQ9LZJM",1474877300347,9,1098,18,263,"Less than half","left","English",NA,7,3,487803
360,"A17PAQSQ74L915:3AAJC4I4FH0A71FI02Z5R9FSQ9LZJM",1474877301997,10,1648,18,2,"Less than half","left","English",NA,7,3,487803
361,"A17PAQSQ74L915:3AAJC4I4FH0A71FI02Z5R9FSQ9LZJM",1474877303018,11,1020,18,280,"Less than half","left","English",NA,7,3,487803
362,"A17PAQSQ74L915:3AAJC4I4FH0A71FI02Z5R9FSQ9LZJM",1474877304281,12,1261,18,209,"Less than half","left","English",NA,7,3,487803
363,"A17PAQSQ74L915:3AAJC4I4FH0A71FI02Z5R9FSQ9LZJM",1474877305765,13,1483,18,361,"Less than half","right","English",NA,7,3,487803
364,"A17PAQSQ74L915:3AAJC4I4FH0A71FI02Z5R9FSQ9LZJM",1474877306801,14,1035,18,226,"Less than half","right","English",NA,7,3,487803
365,"A17PAQSQ74L915:3AAJC4I4FH0A71FI02Z5R9FSQ9LZJM",1474877308837,15,2036,18,14,"Less than half","right","English",NA,7,3,487803
366,"A17PAQSQ74L915:3AAJC4I4FH0A71FI02Z5R9FSQ9LZJM",1474877310223,16,1384,18,431,"Less than half","right","English",NA,7,3,487803
367,"A17PAQSQ74L915:3AAJC4I4FH0A71FI02Z5R9FSQ9LZJM",1474877311314,17,1089,18,257,"Less than half","left","English",NA,7,3,487803
368,"A17PAQSQ74L915:3AAJC4I4FH0A71FI02Z5R9FSQ9LZJM",1474877312114,18,799,18,18,"Less than half","right","English",NA,7,3,487803
369,"A17PAQSQ74L915:3AAJC4I4FH0A71FI02Z5R9FSQ9LZJM",1474877314417,19,2302,14,18,"Less than half","left","English",NA,7,3,487803
370,"A17PAQSQ74L915:3AAJC4I4FH0A71FI02Z5R9FSQ9LZJM",1474877315684,20,1265,14,252,"Less than half","left","English",NA,7,3,487803
371,"A17PAQSQ74L915:3AAJC4I4FH0A71FI02Z5R9FSQ9LZJM",1474877316735,21,1049,14,406,"Less than half","right","English",NA,7,3,487803
372,"A17PAQSQ74L915:3AAJC4I4FH0A71FI02Z5R9FSQ9LZJM",1474877317672,22,935,14,423,"Less than half","left","English",NA,7,3,487803
373,"A17PAQSQ74L915:3AAJC4I4FH0A71FI02Z5R9FSQ9LZJM",1474877319464,23,1790,14,14,"Less than half","right","English",NA,7,3,487803
374,"A17PAQSQ74L915:3AAJC4I4FH0A71FI02Z5R9FSQ9LZJM",1474877320298,24,833,14,416,"Less than half","left","English",NA,7,3,487803
375,"A17PAQSQ74L915:3AAJC4I4FH0A71FI02Z5R9FSQ9LZJM",1474877321900,25,1602,95,14,"Less than half","right","English",NA,7,3,487803
376,"A17PAQSQ74L915:3AAJC4I4FH0A71FI02Z5R9FSQ9LZJM",1474877324038,26,2136,95,79,"Less than half","right","English",NA,7,3,487803
377,"A17PAQSQ74L915:3AAJC4I4FH0A71FI02Z5R9FSQ9LZJM",1474877326182,27,2143,106,95,"Less than half","right","English",NA,7,3,487803
378,"A17PAQSQ74L915:3AAJC4I4FH0A71FI02Z5R9FSQ9LZJM",1474877329367,28,3184,117,106,"Less than half","right","English",NA,7,3,487803
379,"A17PAQSQ74L915:3AAJC4I4FH0A71FI02Z5R9FSQ9LZJM",1474877332413,29,3045,117,268,"Less than half","right","English",NA,7,3,487803
380,"A17PAQSQ74L915:3AAJC4I4FH0A71FI02Z5R9FSQ9LZJM",1474877333782,30,1367,117,370,"Less than half","left","English",NA,7,3,487803
381,"A17PAQSQ74L915:3AAJC4I4FH0A71FI02Z5R9FSQ9LZJM",1474877335703,31,1919,117,388,"Less than half","left","English",NA,7,3,487803
382,"A17PAQSQ74L915:3AAJC4I4FH0A71FI02Z5R9FSQ9LZJM",1474877337514,32,1809,117,387,"Less than half","right","English",NA,7,3,487803
383,"A17PAQSQ74L915:3AAJC4I4FH0A71FI02Z5R9FSQ9LZJM",1474877338655,33,1140,117,425,"Less than half","right","English",NA,7,3,487803
384,"A17PAQSQ74L915:3AAJC4I4FH0A71FI02Z5R9FSQ9LZJM",1474877340344,34,1685,109,117,"Less than half","right","English",NA,7,3,487803
385,"A17PAQSQ74L915:3AAJC4I4FH0A71FI02Z5R9FSQ9LZJM",1474877342578,35,2233,109,165,"Less than half","left","English",NA,7,3,487803
386,"A17PAQSQ74L915:3AAJC4I4FH0A71FI02Z5R9FSQ9LZJM",1474877344110,36,1531,27,109,"Less than half","right","English",NA,7,3,487803
387,"A17PAQSQ74L915:3AAJC4I4FH0A71FI02Z5R9FSQ9LZJM",1474877345828,37,1717,27,233,"Less than half","right","English",NA,7,3,487803
388,"A17PAQSQ74L915:3AAJC4I4FH0A71FI02Z5R9FSQ9LZJM",1474877347144,38,1316,27,32,"Less than half","right","English",NA,7,3,487803
389,"A17PAQSQ74L915:3AAJC4I4FH0A71FI02Z5R9FSQ9LZJM",1474877348814,39,1669,45,27,"Less than half","left","English",NA,7,3,487803
390,"A17PAQSQ74L915:3AAJC4I4FH0A71FI02Z5R9FSQ9LZJM",1474877350304,40,1489,45,29,"Less than half","left","English",NA,7,3,487803
391,"A17PAQSQ74L915:3AAJC4I4FH0A71FI02Z5R9FSQ9LZJM",1474877352002,41,1697,45,59,"Less than half","right","English",NA,7,3,487803
392,"A17PAQSQ74L915:3AAJC4I4FH0A71FI02Z5R9FSQ9LZJM",1474877353548,42,1545,45,335,"Less than half","right","English",NA,7,3,487803
393,"A17PAQSQ74L915:3AAJC4I4FH0A71FI02Z5R9FSQ9LZJM",1474877354988,43,1439,45,49,"Less than half","left","English",NA,7,3,487803
394,"A17PAQSQ74L915:3AAJC4I4FH0A71FI02Z5R9FSQ9LZJM",1474877356246,44,1256,43,45,"Less than half","left","English",NA,7,3,487803
395,"A17PAQSQ74L915:3AAJC4I4FH0A71FI02Z5R9FSQ9LZJM",1474877357994,45,1747,43,55,"Less than half","left","English",NA,7,3,487803
396,"A17PAQSQ74L915:3AAJC4I4FH0A71FI02Z5R9FSQ9LZJM",1474877359276,46,1281,43,287,"Less than half","right","English",NA,7,3,487803
397,"A17PAQSQ74L915:3AAJC4I4FH0A71FI02Z5R9FSQ9LZJM",1474877360827,47,1550,34,43,"Less than half","right","English",NA,7,3,487803
398,"A17PAQSQ74L915:3AAJC4I4FH0A71FI02Z5R9FSQ9LZJM",1474877362331,48,1504,34,20,"Less than half","right","English",NA,7,3,487803
399,"A17PAQSQ74L915:3AAJC4I4FH0A71FI02Z5R9FSQ9LZJM",1474877363664,49,1333,107,34,"Less than half","left","English",NA,7,3,487803
400,"A17PAQSQ74L915:3AAJC4I4FH0A71FI02Z5R9FSQ9LZJM",1474877364801,50,1136,107,429,"Less than half","right","English",NA,7,3,487803
401,"A1A3TGZ7DKJWRW:3OF2M9AATHW5ILL0INZHSOF55YLZKL",1474876896226,1,5889,299,301,"The majority","left","english",NA,4,9,353017
402,"A1A3TGZ7DKJWRW:3OF2M9AATHW5ILL0INZHSOF55YLZKL",1474876899122,2,2895,303,299,"The majority","right","english",NA,4,9,353017
403,"A1A3TGZ7DKJWRW:3OF2M9AATHW5ILL0INZHSOF55YLZKL",1474876903154,3,4031,303,209,"The majority","right","english",NA,4,9,353017
404,"A1A3TGZ7DKJWRW:3OF2M9AATHW5ILL0INZHSOF55YLZKL",1474876905978,4,2823,303,172,"The majority","left","english",NA,4,9,353017
405,"A1A3TGZ7DKJWRW:3OF2M9AATHW5ILL0INZHSOF55YLZKL",1474876907674,5,1695,345,303,"The majority","left","english",NA,4,9,353017
406,"A1A3TGZ7DKJWRW:3OF2M9AATHW5ILL0INZHSOF55YLZKL",1474876910034,6,2359,345,149,"The majority","right","english",NA,4,9,353017
407,"A1A3TGZ7DKJWRW:3OF2M9AATHW5ILL0INZHSOF55YLZKL",1474876912006,7,1971,345,207,"The majority","left","english",NA,4,9,353017
408,"A1A3TGZ7DKJWRW:3OF2M9AATHW5ILL0INZHSOF55YLZKL",1474876913602,8,1595,345,243,"The majority","right","english",NA,4,9,353017
409,"A1A3TGZ7DKJWRW:3OF2M9AATHW5ILL0INZHSOF55YLZKL",1474876915218,9,1615,345,359,"The majority","left","english",NA,4,9,353017
410,"A1A3TGZ7DKJWRW:3OF2M9AATHW5ILL0INZHSOF55YLZKL",1474876916850,10,1631,345,96,"The majority","right","english",NA,4,9,353017
411,"A1A3TGZ7DKJWRW:3OF2M9AATHW5ILL0INZHSOF55YLZKL",1474876918370,11,1519,345,118,"The majority","right","english",NA,4,9,353017
412,"A1A3TGZ7DKJWRW:3OF2M9AATHW5ILL0INZHSOF55YLZKL",1474876920626,12,2255,409,345,"The majority","left","english",NA,4,9,353017
413,"A1A3TGZ7DKJWRW:3OF2M9AATHW5ILL0INZHSOF55YLZKL",1474876922234,13,1607,409,420,"The majority","left","english",NA,4,9,353017
414,"A1A3TGZ7DKJWRW:3OF2M9AATHW5ILL0INZHSOF55YLZKL",1474876924218,14,1984,411,409,"The majority","left","english",NA,4,9,353017
415,"A1A3TGZ7DKJWRW:3OF2M9AATHW5ILL0INZHSOF55YLZKL",1474876925550,15,1331,411,431,"The majority","left","english",NA,4,9,353017
416,"A1A3TGZ7DKJWRW:3OF2M9AATHW5ILL0INZHSOF55YLZKL",1474876927938,16,2388,411,28,"The majority","right","english",NA,4,9,353017
417,"A1A3TGZ7DKJWRW:3OF2M9AATHW5ILL0INZHSOF55YLZKL",1474876929354,17,1416,411,405,"The majority","left","english",NA,4,9,353017
418,"A1A3TGZ7DKJWRW:3OF2M9AATHW5ILL0INZHSOF55YLZKL",1474876930747,18,1393,411,419,"The majority","left","english",NA,4,9,353017
419,"A1A3TGZ7DKJWRW:3OF2M9AATHW5ILL0INZHSOF55YLZKL",1474876933122,19,2375,407,411,"The majority","left","english",NA,4,9,353017
420,"A1A3TGZ7DKJWRW:3OF2M9AATHW5ILL0INZHSOF55YLZKL",1474876934922,20,1799,407,214,"The majority","right","english",NA,4,9,353017
421,"A1A3TGZ7DKJWRW:3OF2M9AATHW5ILL0INZHSOF55YLZKL",1474876936307,21,1384,421,407,"The majority","left","english",NA,4,9,353017
422,"A1A3TGZ7DKJWRW:3OF2M9AATHW5ILL0INZHSOF55YLZKL",1474876937730,22,1423,421,2,"The majority","right","english",NA,4,9,353017
423,"A1A3TGZ7DKJWRW:3OF2M9AATHW5ILL0INZHSOF55YLZKL",1474876939714,23,1983,421,423,"The majority","right","english",NA,4,9,353017
424,"A1A3TGZ7DKJWRW:3OF2M9AATHW5ILL0INZHSOF55YLZKL",1474876941266,24,1551,421,125,"The majority","left","english",NA,4,9,353017
425,"A1A3TGZ7DKJWRW:3OF2M9AATHW5ILL0INZHSOF55YLZKL",1474876943066,25,1799,416,421,"The majority","left","english",NA,4,9,353017
426,"A1A3TGZ7DKJWRW:3OF2M9AATHW5ILL0INZHSOF55YLZKL",1474876945658,26,2592,416,399,"The majority","left","english",NA,4,9,353017
427,"A1A3TGZ7DKJWRW:3OF2M9AATHW5ILL0INZHSOF55YLZKL",1474876947882,27,2223,415,416,"The majority","left","english",NA,4,9,353017
428,"A1A3TGZ7DKJWRW:3OF2M9AATHW5ILL0INZHSOF55YLZKL",1474876949482,28,1599,406,415,"The majority","left","english",NA,4,9,353017
429,"A1A3TGZ7DKJWRW:3OF2M9AATHW5ILL0INZHSOF55YLZKL",1474876950924,29,1441,406,399,"The majority","left","english",NA,4,9,353017
430,"A1A3TGZ7DKJWRW:3OF2M9AATHW5ILL0INZHSOF55YLZKL",1474876953994,30,3070,406,411,"The majority","left","english",NA,4,9,353017
431,"A1A3TGZ7DKJWRW:3OF2M9AATHW5ILL0INZHSOF55YLZKL",1474876955242,31,1247,401,406,"The majority","left","english",NA,4,9,353017
432,"A1A3TGZ7DKJWRW:3OF2M9AATHW5ILL0INZHSOF55YLZKL",1474876956658,32,1415,401,54,"The majority","left","english",NA,4,9,353017
433,"A1A3TGZ7DKJWRW:3OF2M9AATHW5ILL0INZHSOF55YLZKL",1474876957922,33,1264,401,402,"The majority","left","english",NA,4,9,353017
434,"A1A3TGZ7DKJWRW:3OF2M9AATHW5ILL0INZHSOF55YLZKL",1474876959250,34,1327,406,401,"The majority","left","english",NA,4,9,353017
435,"A1A3TGZ7DKJWRW:3OF2M9AATHW5ILL0INZHSOF55YLZKL",1474876960842,35,1591,359,406,"The majority","left","english",NA,4,9,353017
436,"A1A3TGZ7DKJWRW:3OF2M9AATHW5ILL0INZHSOF55YLZKL",1474876962090,36,1247,389,359,"The majority","left","english",NA,4,9,353017
437,"A1A3TGZ7DKJWRW:3OF2M9AATHW5ILL0INZHSOF55YLZKL",1474876963946,37,1855,389,101,"The majority","right","english",NA,4,9,353017
438,"A1A3TGZ7DKJWRW:3OF2M9AATHW5ILL0INZHSOF55YLZKL",1474876965354,38,1407,388,389,"The majority","right","english",NA,4,9,353017
439,"A1A3TGZ7DKJWRW:3OF2M9AATHW5ILL0INZHSOF55YLZKL",1474876966434,39,1079,388,21,"The majority","right","english",NA,4,9,353017
440,"A1A3TGZ7DKJWRW:3OF2M9AATHW5ILL0INZHSOF55YLZKL",1474876967754,40,1320,380,388,"The majority","right","english",NA,4,9,353017
441,"A1A3TGZ7DKJWRW:3OF2M9AATHW5ILL0INZHSOF55YLZKL",1474876968874,41,1120,393,380,"The majority","right","english",NA,4,9,353017
442,"A1A3TGZ7DKJWRW:3OF2M9AATHW5ILL0INZHSOF55YLZKL",1474876970386,42,1511,410,393,"The majority","left","english",NA,4,9,353017
443,"A1A3TGZ7DKJWRW:3OF2M9AATHW5ILL0INZHSOF55YLZKL",1474876971610,43,1223,410,274,"The majority","left","english",NA,4,9,353017
444,"A1A3TGZ7DKJWRW:3OF2M9AATHW5ILL0INZHSOF55YLZKL",1474876972874,44,1264,410,401,"The majority","left","english",NA,4,9,353017
445,"A1A3TGZ7DKJWRW:3OF2M9AATHW5ILL0INZHSOF55YLZKL",1474876974834,45,1959,395,410,"The majority","left","english",NA,4,9,353017
446,"A1A3TGZ7DKJWRW:3OF2M9AATHW5ILL0INZHSOF55YLZKL",1474876976314,46,1479,397,395,"The majority","left","english",NA,4,9,353017
447,"A1A3TGZ7DKJWRW:3OF2M9AATHW5ILL0INZHSOF55YLZKL",1474876977986,47,1671,397,402,"The majority","left","english",NA,4,9,353017
448,"A1A3TGZ7DKJWRW:3OF2M9AATHW5ILL0INZHSOF55YLZKL",1474876980418,48,2431,397,33,"The majority","right","english",NA,4,9,353017
449,"A1A3TGZ7DKJWRW:3OF2M9AATHW5ILL0INZHSOF55YLZKL",1474876983426,49,3007,397,161,"The majority","left","english",NA,4,9,353017
450,"A1A3TGZ7DKJWRW:3OF2M9AATHW5ILL0INZHSOF55YLZKL",1474876985866,50,2439,379,397,"The majority","right","english",NA,4,9,353017
451,"A1A3TGZ7DKJWRW:3OF2M9AATHW5ILL0INZHSOF55YLZKL",1474876992546,1,5447,391,18,"About half","right","english",NA,4,9,353017
452,"A1A3TGZ7DKJWRW:3OF2M9AATHW5ILL0INZHSOF55YLZKL",1474876994034,2,1487,353,391,"About half","right","english",NA,4,9,353017
453,"A1A3TGZ7DKJWRW:3OF2M9AATHW5ILL0INZHSOF55YLZKL",1474876997090,3,3055,342,353,"About half","right","english",NA,4,9,353017
454,"A1A3TGZ7DKJWRW:3OF2M9AATHW5ILL0INZHSOF55YLZKL",1474876998994,4,1903,327,342,"About half","right","english",NA,4,9,353017
455,"A1A3TGZ7DKJWRW:3OF2M9AATHW5ILL0INZHSOF55YLZKL",1474877001818,5,2823,343,327,"About half","left","english",NA,4,9,353017
456,"A1A3TGZ7DKJWRW:3OF2M9AATHW5ILL0INZHSOF55YLZKL",1474877004026,6,2207,343,400,"About half","right","english",NA,4,9,353017
457,"A1A3TGZ7DKJWRW:3OF2M9AATHW5ILL0INZHSOF55YLZKL",1474877006298,7,2271,343,351,"About half","left","english",NA,4,9,353017
458,"A1A3TGZ7DKJWRW:3OF2M9AATHW5ILL0INZHSOF55YLZKL",1474877007794,8,1495,343,347,"About half","left","english",NA,4,9,353017
459,"A1A3TGZ7DKJWRW:3OF2M9AATHW5ILL0INZHSOF55YLZKL",1474877009426,9,1631,343,63,"About half","right","english",NA,4,9,353017
460,"A1A3TGZ7DKJWRW:3OF2M9AATHW5ILL0INZHSOF55YLZKL",1474877011106,10,1679,343,196,"About half","left","english",NA,4,9,353017
461,"A1A3TGZ7DKJWRW:3OF2M9AATHW5ILL0INZHSOF55YLZKL",1474877012898,11,1791,343,334,"About half","left","english",NA,4,9,353017
462,"A1A3TGZ7DKJWRW:3OF2M9AATHW5ILL0INZHSOF55YLZKL",1474877014178,12,1279,323,343,"About half","left","english",NA,4,9,353017
463,"A1A3TGZ7DKJWRW:3OF2M9AATHW5ILL0INZHSOF55YLZKL",1474877015986,13,1807,306,323,"About half","left","english",NA,4,9,353017
464,"A1A3TGZ7DKJWRW:3OF2M9AATHW5ILL0INZHSOF55YLZKL",1474877017490,14,1504,306,294,"About half","left","english",NA,4,9,353017
465,"A1A3TGZ7DKJWRW:3OF2M9AATHW5ILL0INZHSOF55YLZKL",1474877018874,15,1384,299,306,"About half","left","english",NA,4,9,353017
466,"A1A3TGZ7DKJWRW:3OF2M9AATHW5ILL0INZHSOF55YLZKL",1474877020258,16,1383,299,228,"About half","left","english",NA,4,9,353017
467,"A1A3TGZ7DKJWRW:3OF2M9AATHW5ILL0INZHSOF55YLZKL",1474877021554,17,1295,232,299,"About half","left","english",NA,4,9,353017
468,"A1A3TGZ7DKJWRW:3OF2M9AATHW5ILL0INZHSOF55YLZKL",1474877022970,18,1415,246,232,"About half","left","english",NA,4,9,353017
469,"A1A3TGZ7DKJWRW:3OF2M9AATHW5ILL0INZHSOF55YLZKL",1474877024835,19,1864,246,263,"About half","left","english",NA,4,9,353017
470,"A1A3TGZ7DKJWRW:3OF2M9AATHW5ILL0INZHSOF55YLZKL",1474877026274,20,1439,246,228,"About half","left","english",NA,4,9,353017
471,"A1A3TGZ7DKJWRW:3OF2M9AATHW5ILL0INZHSOF55YLZKL",1474877028018,21,1744,246,369,"About half","left","english",NA,4,9,353017
472,"A1A3TGZ7DKJWRW:3OF2M9AATHW5ILL0INZHSOF55YLZKL",1474877029554,22,1536,185,246,"About half","left","english",NA,4,9,353017
473,"A1A3TGZ7DKJWRW:3OF2M9AATHW5ILL0INZHSOF55YLZKL",1474877031066,23,1511,193,185,"About half","left","english",NA,4,9,353017
474,"A1A3TGZ7DKJWRW:3OF2M9AATHW5ILL0INZHSOF55YLZKL",1474877032482,24,1415,193,391,"About half","left","english",NA,4,9,353017
475,"A1A3TGZ7DKJWRW:3OF2M9AATHW5ILL0INZHSOF55YLZKL",1474877033834,25,1352,193,188,"About half","left","english",NA,4,9,353017
476,"A1A3TGZ7DKJWRW:3OF2M9AATHW5ILL0INZHSOF55YLZKL",1474877035298,26,1464,335,193,"About half","left","english",NA,4,9,353017
477,"A1A3TGZ7DKJWRW:3OF2M9AATHW5ILL0INZHSOF55YLZKL",1474877037010,27,1712,335,356,"About half","left","english",NA,4,9,353017
478,"A1A3TGZ7DKJWRW:3OF2M9AATHW5ILL0INZHSOF55YLZKL",1474877038346,28,1336,337,335,"About half","left","english",NA,4,9,353017
479,"A1A3TGZ7DKJWRW:3OF2M9AATHW5ILL0INZHSOF55YLZKL",1474877039826,29,1480,337,337,"About half","left","english",NA,4,9,353017
480,"A1A3TGZ7DKJWRW:3OF2M9AATHW5ILL0INZHSOF55YLZKL",1474877041314,30,1488,337,330,"About half","left","english",NA,4,9,353017
481,"A1A3TGZ7DKJWRW:3OF2M9AATHW5ILL0INZHSOF55YLZKL",1474877042707,31,1392,351,337,"About half","left","english",NA,4,9,353017
482,"A1A3TGZ7DKJWRW:3OF2M9AATHW5ILL0INZHSOF55YLZKL",1474877043842,32,1134,351,347,"About half","left","english",NA,4,9,353017
483,"A1A3TGZ7DKJWRW:3OF2M9AATHW5ILL0INZHSOF55YLZKL",1474877045139,33,1296,316,351,"About half","left","english",NA,4,9,353017
484,"A1A3TGZ7DKJWRW:3OF2M9AATHW5ILL0INZHSOF55YLZKL",1474877048250,34,3110,316,333,"About half","left","english",NA,4,9,353017
485,"A1A3TGZ7DKJWRW:3OF2M9AATHW5ILL0INZHSOF55YLZKL",1474877049890,35,1639,316,165,"About half","left","english",NA,4,9,353017
486,"A1A3TGZ7DKJWRW:3OF2M9AATHW5ILL0INZHSOF55YLZKL",1474877051738,36,1848,299,316,"About half","left","english",NA,4,9,353017
487,"A1A3TGZ7DKJWRW:3OF2M9AATHW5ILL0INZHSOF55YLZKL",1474877053514,37,1775,285,299,"About half","left","english",NA,4,9,353017
488,"A1A3TGZ7DKJWRW:3OF2M9AATHW5ILL0INZHSOF55YLZKL",1474877055098,38,1583,285,286,"About half","left","english",NA,4,9,353017
489,"A1A3TGZ7DKJWRW:3OF2M9AATHW5ILL0INZHSOF55YLZKL",1474877056826,39,1727,190,285,"About half","left","english",NA,4,9,353017
490,"A1A3TGZ7DKJWRW:3OF2M9AATHW5ILL0INZHSOF55YLZKL",1474877059027,40,2200,230,190,"About half","right","english",NA,4,9,353017
491,"A1A3TGZ7DKJWRW:3OF2M9AATHW5ILL0INZHSOF55YLZKL",1474877060538,41,1511,230,397,"About half","right","english",NA,4,9,353017
492,"A1A3TGZ7DKJWRW:3OF2M9AATHW5ILL0INZHSOF55YLZKL",1474877062490,42,1951,230,219,"About half","left","english",NA,4,9,353017
493,"A1A3TGZ7DKJWRW:3OF2M9AATHW5ILL0INZHSOF55YLZKL",1474877063850,43,1359,230,246,"About half","left","english",NA,4,9,353017
494,"A1A3TGZ7DKJWRW:3OF2M9AATHW5ILL0INZHSOF55YLZKL",1474877065562,44,1712,230,244,"About half","left","english",NA,4,9,353017
495,"A1A3TGZ7DKJWRW:3OF2M9AATHW5ILL0INZHSOF55YLZKL",1474877066922,45,1359,230,386,"About half","left","english",NA,4,9,353017
496,"A1A3TGZ7DKJWRW:3OF2M9AATHW5ILL0INZHSOF55YLZKL",1474877068330,46,1407,222,230,"About half","left","english",NA,4,9,353017
497,"A1A3TGZ7DKJWRW:3OF2M9AATHW5ILL0INZHSOF55YLZKL",1474877069827,47,1496,232,222,"About half","left","english",NA,4,9,353017
498,"A1A3TGZ7DKJWRW:3OF2M9AATHW5ILL0INZHSOF55YLZKL",1474877070986,48,1159,220,232,"About half","left","english",NA,4,9,353017
499,"A1A3TGZ7DKJWRW:3OF2M9AATHW5ILL0INZHSOF55YLZKL",1474877072698,49,1711,220,386,"About half","right","english",NA,4,9,353017
500,"A1A3TGZ7DKJWRW:3OF2M9AATHW5ILL0INZHSOF55YLZKL",1474877074378,50,1679,220,200,"About half","right","english",NA,4,9,353017
501,"A1A3TGZ7DKJWRW:3OF2M9AATHW5ILL0INZHSOF55YLZKL",1474877080242,1,2535,13,338,"Very few","left","english",NA,4,9,353017
502,"A1A3TGZ7DKJWRW:3OF2M9AATHW5ILL0INZHSOF55YLZKL",1474877081691,2,1449,13,312,"Very few","right","english",NA,4,9,353017
503,"A1A3TGZ7DKJWRW:3OF2M9AATHW5ILL0INZHSOF55YLZKL",1474877083306,3,1615,13,340,"Very few","right","english",NA,4,9,353017
504,"A1A3TGZ7DKJWRW:3OF2M9AATHW5ILL0INZHSOF55YLZKL",1474877085090,4,1783,13,32,"Very few","right","english",NA,4,9,353017
505,"A1A3TGZ7DKJWRW:3OF2M9AATHW5ILL0INZHSOF55YLZKL",1474877086551,5,1461,13,266,"Very few","right","english",NA,4,9,353017
506,"A1A3TGZ7DKJWRW:3OF2M9AATHW5ILL0INZHSOF55YLZKL",1474877087898,6,1347,13,291,"Very few","left","english",NA,4,9,353017
507,"A1A3TGZ7DKJWRW:3OF2M9AATHW5ILL0INZHSOF55YLZKL",1474877089290,7,1392,13,251,"Very few","left","english",NA,4,9,353017
508,"A1A3TGZ7DKJWRW:3OF2M9AATHW5ILL0INZHSOF55YLZKL",1474877090898,8,1608,13,30,"Very few","left","english",NA,4,9,353017
509,"A1A3TGZ7DKJWRW:3OF2M9AATHW5ILL0INZHSOF55YLZKL",1474877092586,9,1688,13,18,"Very few","left","english",NA,4,9,353017
510,"A1A3TGZ7DKJWRW:3OF2M9AATHW5ILL0INZHSOF55YLZKL",1474877094034,10,1447,15,13,"Very few","left","english",NA,4,9,353017
511,"A1A3TGZ7DKJWRW:3OF2M9AATHW5ILL0INZHSOF55YLZKL",1474877095442,11,1407,15,4,"Very few","left","english",NA,4,9,353017
512,"A1A3TGZ7DKJWRW:3OF2M9AATHW5ILL0INZHSOF55YLZKL",1474877096914,12,1471,15,35,"Very few","left","english",NA,4,9,353017
513,"A1A3TGZ7DKJWRW:3OF2M9AATHW5ILL0INZHSOF55YLZKL",1474877098434,13,1519,1,15,"Very few","left","english",NA,4,9,353017
514,"A1A3TGZ7DKJWRW:3OF2M9AATHW5ILL0INZHSOF55YLZKL",1474877101386,14,2952,1,1,"Very few","left","english",NA,4,9,353017
515,"A1A3TGZ7DKJWRW:3OF2M9AATHW5ILL0INZHSOF55YLZKL",1474877102722,15,1335,1,347,"Very few","right","english",NA,4,9,353017
516,"A1A3TGZ7DKJWRW:3OF2M9AATHW5ILL0INZHSOF55YLZKL",1474877104100,16,1378,1,425,"Very few","right","english",NA,4,9,353017
517,"A1A3TGZ7DKJWRW:3OF2M9AATHW5ILL0INZHSOF55YLZKL",1474877105898,17,1797,1,416,"Very few","left","english",NA,4,9,353017
518,"A1A3TGZ7DKJWRW:3OF2M9AATHW5ILL0INZHSOF55YLZKL",1474877107754,18,1855,1,415,"Very few","left","english",NA,4,9,353017
519,"A1A3TGZ7DKJWRW:3OF2M9AATHW5ILL0INZHSOF55YLZKL",1474877109026,19,1271,1,391,"Very few","right","english",NA,4,9,353017
520,"A1A3TGZ7DKJWRW:3OF2M9AATHW5ILL0INZHSOF55YLZKL",1474877110389,20,1362,1,251,"Very few","right","english",NA,4,9,353017
521,"A1A3TGZ7DKJWRW:3OF2M9AATHW5ILL0INZHSOF55YLZKL",1474877111850,21,1461,1,200,"Very few","right","english",NA,4,9,353017
522,"A1A3TGZ7DKJWRW:3OF2M9AATHW5ILL0INZHSOF55YLZKL",1474877113602,22,1751,5,1,"Very few","right","english",NA,4,9,353017
523,"A1A3TGZ7DKJWRW:3OF2M9AATHW5ILL0INZHSOF55YLZKL",1474877115234,23,1632,5,232,"Very few","right","english",NA,4,9,353017
524,"A1A3TGZ7DKJWRW:3OF2M9AATHW5ILL0INZHSOF55YLZKL",1474877116922,24,1687,5,89,"Very few","left","english",NA,4,9,353017
525,"A1A3TGZ7DKJWRW:3OF2M9AATHW5ILL0INZHSOF55YLZKL",1474877118378,25,1455,5,230,"Very few","left","english",NA,4,9,353017
526,"A1A3TGZ7DKJWRW:3OF2M9AATHW5ILL0INZHSOF55YLZKL",1474877120346,26,1967,5,143,"Very few","left","english",NA,4,9,353017
527,"A1A3TGZ7DKJWRW:3OF2M9AATHW5ILL0INZHSOF55YLZKL",1474877122234,27,1888,5,18,"Very few","right","english",NA,4,9,353017
528,"A1A3TGZ7DKJWRW:3OF2M9AATHW5ILL0INZHSOF55YLZKL",1474877123714,28,1479,5,15,"Very few","right","english",NA,4,9,353017
529,"A1A3TGZ7DKJWRW:3OF2M9AATHW5ILL0INZHSOF55YLZKL",1474877125946,29,2231,5,160,"Very few","right","english",NA,4,9,353017
530,"A1A3TGZ7DKJWRW:3OF2M9AATHW5ILL0INZHSOF55YLZKL",1474877127594,30,1647,5,428,"Very few","left","english",NA,4,9,353017
531,"A1A3TGZ7DKJWRW:3OF2M9AATHW5ILL0INZHSOF55YLZKL",1474877129186,31,1590,5,199,"Very few","right","english",NA,4,9,353017
532,"A1A3TGZ7DKJWRW:3OF2M9AATHW5ILL0INZHSOF55YLZKL",1474877130955,32,1768,5,245,"Very few","left","english",NA,4,9,353017
533,"A1A3TGZ7DKJWRW:3OF2M9AATHW5ILL0INZHSOF55YLZKL",1474877132026,33,1071,5,413,"Very few","right","english",NA,4,9,353017
534,"A1A3TGZ7DKJWRW:3OF2M9AATHW5ILL0INZHSOF55YLZKL",1474877133714,34,1687,5,152,"Very few","left","english",NA,4,9,353017
535,"A1A3TGZ7DKJWRW:3OF2M9AATHW5ILL0INZHSOF55YLZKL",1474877135738,35,2024,5,21,"Very few","left","english",NA,4,9,353017
536,"A1A3TGZ7DKJWRW:3OF2M9AATHW5ILL0INZHSOF55YLZKL",1474877137090,36,1352,5,432,"Very few","left","english",NA,4,9,353017
537,"A1A3TGZ7DKJWRW:3OF2M9AATHW5ILL0INZHSOF55YLZKL",1474877139107,37,2016,97,5,"Very few","right","english",NA,4,9,353017
538,"A1A3TGZ7DKJWRW:3OF2M9AATHW5ILL0INZHSOF55YLZKL",1474877141474,38,2367,97,87,"Very few","right","english",NA,4,9,353017
539,"A1A3TGZ7DKJWRW:3OF2M9AATHW5ILL0INZHSOF55YLZKL",1474877143114,39,1639,97,118,"Very few","right","english",NA,4,9,353017
540,"A1A3TGZ7DKJWRW:3OF2M9AATHW5ILL0INZHSOF55YLZKL",1474877145571,40,2457,97,389,"Very few","right","english",NA,4,9,353017
541,"A1A3TGZ7DKJWRW:3OF2M9AATHW5ILL0INZHSOF55YLZKL",1474877147126,41,1554,102,97,"Very few","left","english",NA,4,9,353017
542,"A1A3TGZ7DKJWRW:3OF2M9AATHW5ILL0INZHSOF55YLZKL",1474877148626,42,1500,84,102,"Very few","left","english",NA,4,9,353017
543,"A1A3TGZ7DKJWRW:3OF2M9AATHW5ILL0INZHSOF55YLZKL",1474877150698,43,2071,84,399,"Very few","left","english",NA,4,9,353017
544,"A1A3TGZ7DKJWRW:3OF2M9AATHW5ILL0INZHSOF55YLZKL",1474877152122,44,1423,84,77,"Very few","left","english",NA,4,9,353017
545,"A1A3TGZ7DKJWRW:3OF2M9AATHW5ILL0INZHSOF55YLZKL",1474877153650,45,1527,128,84,"Very few","left","english",NA,4,9,353017
546,"A1A3TGZ7DKJWRW:3OF2M9AATHW5ILL0INZHSOF55YLZKL",1474877155218,46,1568,113,128,"Very few","left","english",NA,4,9,353017
547,"A1A3TGZ7DKJWRW:3OF2M9AATHW5ILL0INZHSOF55YLZKL",1474877156570,47,1351,113,116,"Very few","left","english",NA,4,9,353017
548,"A1A3TGZ7DKJWRW:3OF2M9AATHW5ILL0INZHSOF55YLZKL",1474877158226,48,1656,129,113,"Very few","left","english",NA,4,9,353017
549,"A1A3TGZ7DKJWRW:3OF2M9AATHW5ILL0INZHSOF55YLZKL",1474877160898,49,2671,138,129,"Very few","left","english",NA,4,9,353017
550,"A1A3TGZ7DKJWRW:3OF2M9AATHW5ILL0INZHSOF55YLZKL",1474877162306,50,1408,132,138,"Very few","left","english",NA,4,9,353017
551,"A1A3TGZ7DKJWRW:3OF2M9AATHW5ILL0INZHSOF55YLZKL",1474877168707,1,4895,233,266,"Few","left","english",NA,4,9,353017
552,"A1A3TGZ7DKJWRW:3OF2M9AATHW5ILL0INZHSOF55YLZKL",1474877170156,2,1449,47,233,"Few","right","english",NA,4,9,353017
553,"A1A3TGZ7DKJWRW:3OF2M9AATHW5ILL0INZHSOF55YLZKL",1474877171619,3,1463,47,189,"Few","right","english",NA,4,9,353017
554,"A1A3TGZ7DKJWRW:3OF2M9AATHW5ILL0INZHSOF55YLZKL",1474877173291,4,1672,47,58,"Few","left","english",NA,4,9,353017
555,"A1A3TGZ7DKJWRW:3OF2M9AATHW5ILL0INZHSOF55YLZKL",1474877174635,5,1344,47,313,"Few","right","english",NA,4,9,353017
556,"A1A3TGZ7DKJWRW:3OF2M9AATHW5ILL0INZHSOF55YLZKL",1474877176267,6,1631,47,51,"Few","right","english",NA,4,9,353017
557,"A1A3TGZ7DKJWRW:3OF2M9AATHW5ILL0INZHSOF55YLZKL",1474877177931,7,1663,47,46,"Few","right","english",NA,4,9,353017
558,"A1A3TGZ7DKJWRW:3OF2M9AATHW5ILL0INZHSOF55YLZKL",1474877179283,8,1351,47,43,"Few","right","english",NA,4,9,353017
559,"A1A3TGZ7DKJWRW:3OF2M9AATHW5ILL0INZHSOF55YLZKL",1474877180731,9,1447,80,47,"Few","right","english",NA,4,9,353017
560,"A1A3TGZ7DKJWRW:3OF2M9AATHW5ILL0INZHSOF55YLZKL",1474877182187,10,1456,80,386,"Few","left","english",NA,4,9,353017
561,"A1A3TGZ7DKJWRW:3OF2M9AATHW5ILL0INZHSOF55YLZKL",1474877183819,11,1631,62,80,"Few","right","english",NA,4,9,353017
562,"A1A3TGZ7DKJWRW:3OF2M9AATHW5ILL0INZHSOF55YLZKL",1474877185363,12,1543,62,77,"Few","left","english",NA,4,9,353017
563,"A1A3TGZ7DKJWRW:3OF2M9AATHW5ILL0INZHSOF55YLZKL",1474877186923,13,1559,72,62,"Few","left","english",NA,4,9,353017
564,"A1A3TGZ7DKJWRW:3OF2M9AATHW5ILL0INZHSOF55YLZKL",1474877188747,14,1823,72,268,"Few","left","english",NA,4,9,353017
565,"A1A3TGZ7DKJWRW:3OF2M9AATHW5ILL0INZHSOF55YLZKL",1474877190235,15,1488,67,72,"Few","left","english",NA,4,9,353017
566,"A1A3TGZ7DKJWRW:3OF2M9AATHW5ILL0INZHSOF55YLZKL",1474877191770,16,1534,67,334,"Few","left","english",NA,4,9,353017
567,"A1A3TGZ7DKJWRW:3OF2M9AATHW5ILL0INZHSOF55YLZKL",1474877193773,17,2003,67,87,"Few","left","english",NA,4,9,353017
568,"A1A3TGZ7DKJWRW:3OF2M9AATHW5ILL0INZHSOF55YLZKL",1474877195227,18,1454,67,55,"Few","right","english",NA,4,9,353017
569,"A1A3TGZ7DKJWRW:3OF2M9AATHW5ILL0INZHSOF55YLZKL",1474877196507,19,1279,58,67,"Few","right","english",NA,4,9,353017
570,"A1A3TGZ7DKJWRW:3OF2M9AATHW5ILL0INZHSOF55YLZKL",1474877198035,20,1528,58,65,"Few","right","english",NA,4,9,353017
571,"A1A3TGZ7DKJWRW:3OF2M9AATHW5ILL0INZHSOF55YLZKL",1474877200163,21,2128,58,116,"Few","right","english",NA,4,9,353017
572,"A1A3TGZ7DKJWRW:3OF2M9AATHW5ILL0INZHSOF55YLZKL",1474877201843,22,1679,42,58,"Few","left","english",NA,4,9,353017
573,"A1A3TGZ7DKJWRW:3OF2M9AATHW5ILL0INZHSOF55YLZKL",1474877204003,23,2160,21,42,"Few","right","english",NA,4,9,353017
574,"A1A3TGZ7DKJWRW:3OF2M9AATHW5ILL0INZHSOF55YLZKL",1474877205555,24,1551,21,264,"Few","left","english",NA,4,9,353017
575,"A1A3TGZ7DKJWRW:3OF2M9AATHW5ILL0INZHSOF55YLZKL",1474877207283,25,1727,14,21,"Few","right","english",NA,4,9,353017
576,"A1A3TGZ7DKJWRW:3OF2M9AATHW5ILL0INZHSOF55YLZKL",1474877210395,26,3111,14,165,"Few","right","english",NA,4,9,353017
577,"A1A3TGZ7DKJWRW:3OF2M9AATHW5ILL0INZHSOF55YLZKL",1474877211771,27,1376,14,203,"Few","right","english",NA,4,9,353017
578,"A1A3TGZ7DKJWRW:3OF2M9AATHW5ILL0INZHSOF55YLZKL",1474877213771,28,2000,14,76,"Few","left","english",NA,4,9,353017
579,"A1A3TGZ7DKJWRW:3OF2M9AATHW5ILL0INZHSOF55YLZKL",1474877215155,29,1384,15,14,"Few","right","english",NA,4,9,353017
580,"A1A3TGZ7DKJWRW:3OF2M9AATHW5ILL0INZHSOF55YLZKL",1474877216691,30,1536,15,112,"Few","right","english",NA,4,9,353017
581,"A1A3TGZ7DKJWRW:3OF2M9AATHW5ILL0INZHSOF55YLZKL",1474877218219,31,1527,15,18,"Few","right","english",NA,4,9,353017
582,"A1A3TGZ7DKJWRW:3OF2M9AATHW5ILL0INZHSOF55YLZKL",1474877219659,32,1440,15,29,"Few","right","english",NA,4,9,353017
583,"A1A3TGZ7DKJWRW:3OF2M9AATHW5ILL0INZHSOF55YLZKL",1474877221091,33,1432,15,84,"Few","right","english",NA,4,9,353017
584,"A1A3TGZ7DKJWRW:3OF2M9AATHW5ILL0INZHSOF55YLZKL",1474877222315,34,1223,30,15,"Few","right","english",NA,4,9,353017
585,"A1A3TGZ7DKJWRW:3OF2M9AATHW5ILL0INZHSOF55YLZKL",1474877223803,35,1487,24,30,"Few","right","english",NA,4,9,353017
586,"A1A3TGZ7DKJWRW:3OF2M9AATHW5ILL0INZHSOF55YLZKL",1474877225347,36,1543,24,9,"Few","right","english",NA,4,9,353017
587,"A1A3TGZ7DKJWRW:3OF2M9AATHW5ILL0INZHSOF55YLZKL",1474877226683,37,1335,24,33,"Few","right","english",NA,4,9,353017
588,"A1A3TGZ7DKJWRW:3OF2M9AATHW5ILL0INZHSOF55YLZKL",1474877228386,38,1702,24,314,"Few","right","english",NA,4,9,353017
589,"A1A3TGZ7DKJWRW:3OF2M9AATHW5ILL0INZHSOF55YLZKL",1474877229747,39,1361,24,34,"Few","right","english",NA,4,9,353017
590,"A1A3TGZ7DKJWRW:3OF2M9AATHW5ILL0INZHSOF55YLZKL",1474877231091,40,1344,24,29,"Few","right","english",NA,4,9,353017
591,"A1A3TGZ7DKJWRW:3OF2M9AATHW5ILL0INZHSOF55YLZKL",1474877233163,41,2071,24,78,"Few","right","english",NA,4,9,353017
592,"A1A3TGZ7DKJWRW:3OF2M9AATHW5ILL0INZHSOF55YLZKL",1474877234779,42,1616,24,358,"Few","right","english",NA,4,9,353017
593,"A1A3TGZ7DKJWRW:3OF2M9AATHW5ILL0INZHSOF55YLZKL",1474877236563,43,1783,24,24,"Few","right","english",NA,4,9,353017
594,"A1A3TGZ7DKJWRW:3OF2M9AATHW5ILL0INZHSOF55YLZKL",1474877238443,44,1879,8,24,"Few","right","english",NA,4,9,353017
595,"A1A3TGZ7DKJWRW:3OF2M9AATHW5ILL0INZHSOF55YLZKL",1474877240139,45,1696,16,8,"Few","right","english",NA,4,9,353017
596,"A1A3TGZ7DKJWRW:3OF2M9AATHW5ILL0INZHSOF55YLZKL",1474877243301,46,3161,34,16,"Few","right","english",NA,4,9,353017
597,"A1A3TGZ7DKJWRW:3OF2M9AATHW5ILL0INZHSOF55YLZKL",1474877244715,47,1414,50,34,"Few","right","english",NA,4,9,353017
598,"A1A3TGZ7DKJWRW:3OF2M9AATHW5ILL0INZHSOF55YLZKL",1474877246019,48,1304,54,50,"Few","right","english",NA,4,9,353017
599,"A1A3TGZ7DKJWRW:3OF2M9AATHW5ILL0INZHSOF55YLZKL",1474877247475,49,1456,54,114,"Few","right","english",NA,4,9,353017
600,"A1A3TGZ7DKJWRW:3OF2M9AATHW5ILL0INZHSOF55YLZKL",1474877249243,50,1768,54,423,"Few","left","english",NA,4,9,353017
601,"A1CC9996A7KZDS:35BLDD71I75JYWFCHRDOUXQMLWSZV7",1474877163172,1,5172,90,14,"About half","left","English",NA,8,2,423225
602,"A1CC9996A7KZDS:35BLDD71I75JYWFCHRDOUXQMLWSZV7",1474877167644,2,4470,90,51,"About half","right","English",NA,8,2,423225
603,"A1CC9996A7KZDS:35BLDD71I75JYWFCHRDOUXQMLWSZV7",1474877172259,3,4614,81,90,"About half","left","English",NA,8,2,423225
604,"A1CC9996A7KZDS:35BLDD71I75JYWFCHRDOUXQMLWSZV7",1474877175359,4,3098,81,428,"About half","right","English",NA,8,2,423225
605,"A1CC9996A7KZDS:35BLDD71I75JYWFCHRDOUXQMLWSZV7",1474877178336,5,2975,81,65,"About half","right","English",NA,8,2,423225
606,"A1CC9996A7KZDS:35BLDD71I75JYWFCHRDOUXQMLWSZV7",1474877181665,6,3328,81,67,"About half","left","English",NA,8,2,423225
607,"A1CC9996A7KZDS:35BLDD71I75JYWFCHRDOUXQMLWSZV7",1474877186276,7,4610,73,81,"About half","left","English",NA,8,2,423225
608,"A1CC9996A7KZDS:35BLDD71I75JYWFCHRDOUXQMLWSZV7",1474877189918,8,3640,73,278,"About half","left","English",NA,8,2,423225
609,"A1CC9996A7KZDS:35BLDD71I75JYWFCHRDOUXQMLWSZV7",1474877193159,9,3239,105,73,"About half","right","English",NA,8,2,423225
610,"A1CC9996A7KZDS:35BLDD71I75JYWFCHRDOUXQMLWSZV7",1474877195451,10,2291,96,105,"About half","right","English",NA,8,2,423225
611,"A1CC9996A7KZDS:35BLDD71I75JYWFCHRDOUXQMLWSZV7",1474877198532,11,3077,96,10,"About half","right","English",NA,8,2,423225
612,"A1CC9996A7KZDS:35BLDD71I75JYWFCHRDOUXQMLWSZV7",1474877200607,12,2073,76,96,"About half","left","English",NA,8,2,423225
613,"A1CC9996A7KZDS:35BLDD71I75JYWFCHRDOUXQMLWSZV7",1474877204289,13,3680,76,187,"About half","left","English",NA,8,2,423225
614,"A1CC9996A7KZDS:35BLDD71I75JYWFCHRDOUXQMLWSZV7",1474877206705,14,2414,76,9,"About half","right","English",NA,8,2,423225
615,"A1CC9996A7KZDS:35BLDD71I75JYWFCHRDOUXQMLWSZV7",1474877208957,15,2250,76,53,"About half","left","English",NA,8,2,423225
616,"A1CC9996A7KZDS:35BLDD71I75JYWFCHRDOUXQMLWSZV7",1474877210836,16,1878,72,76,"About half","left","English",NA,8,2,423225
617,"A1CC9996A7KZDS:35BLDD71I75JYWFCHRDOUXQMLWSZV7",1474877212663,17,1825,84,72,"About half","left","English",NA,8,2,423225
618,"A1CC9996A7KZDS:35BLDD71I75JYWFCHRDOUXQMLWSZV7",1474877214846,18,2182,84,103,"About half","left","English",NA,8,2,423225
619,"A1CC9996A7KZDS:35BLDD71I75JYWFCHRDOUXQMLWSZV7",1474877216593,19,1745,115,84,"About half","right","English",NA,8,2,423225
620,"A1CC9996A7KZDS:35BLDD71I75JYWFCHRDOUXQMLWSZV7",1474877218424,20,1829,115,25,"About half","left","English",NA,8,2,423225
621,"A1CC9996A7KZDS:35BLDD71I75JYWFCHRDOUXQMLWSZV7",1474877221477,21,3051,113,115,"About half","right","English",NA,8,2,423225
622,"A1CC9996A7KZDS:35BLDD71I75JYWFCHRDOUXQMLWSZV7",1474877223685,22,2206,113,94,"About half","left","English",NA,8,2,423225
623,"A1CC9996A7KZDS:35BLDD71I75JYWFCHRDOUXQMLWSZV7",1474877226373,23,2687,113,103,"About half","left","English",NA,8,2,423225
624,"A1CC9996A7KZDS:35BLDD71I75JYWFCHRDOUXQMLWSZV7",1474877229009,24,2635,113,100,"About half","left","English",NA,8,2,423225
625,"A1CC9996A7KZDS:35BLDD71I75JYWFCHRDOUXQMLWSZV7",1474877231225,25,2215,113,106,"About half","left","English",NA,8,2,423225
626,"A1CC9996A7KZDS:35BLDD71I75JYWFCHRDOUXQMLWSZV7",1474877233179,26,1953,113,53,"About half","right","English",NA,8,2,423225
627,"A1CC9996A7KZDS:35BLDD71I75JYWFCHRDOUXQMLWSZV7",1474877235355,27,2174,113,107,"About half","left","English",NA,8,2,423225
628,"A1CC9996A7KZDS:35BLDD71I75JYWFCHRDOUXQMLWSZV7",1474877237150,28,1794,113,298,"About half","left","English",NA,8,2,423225
629,"A1CC9996A7KZDS:35BLDD71I75JYWFCHRDOUXQMLWSZV7",1474877238788,29,1637,121,113,"About half","left","English",NA,8,2,423225
630,"A1CC9996A7KZDS:35BLDD71I75JYWFCHRDOUXQMLWSZV7",1474877241417,30,2627,7,121,"About half","left","English",NA,8,2,423225
631,"A1CC9996A7KZDS:35BLDD71I75JYWFCHRDOUXQMLWSZV7",1474877241697,31,279,7,4,"About half","left","English",NA,8,2,423225
632,"A1CC9996A7KZDS:35BLDD71I75JYWFCHRDOUXQMLWSZV7",1474877248208,32,6510,432,7,"About half","left","English",NA,8,2,423225
633,"A1CC9996A7KZDS:35BLDD71I75JYWFCHRDOUXQMLWSZV7",1474877251465,33,3256,432,20,"About half","right","English",NA,8,2,423225
634,"A1CC9996A7KZDS:35BLDD71I75JYWFCHRDOUXQMLWSZV7",1474877253040,34,1573,432,6,"About half","left","English",NA,8,2,423225
635,"A1CC9996A7KZDS:35BLDD71I75JYWFCHRDOUXQMLWSZV7",1474877256838,35,3797,424,432,"About half","left","English",NA,8,2,423225
636,"A1CC9996A7KZDS:35BLDD71I75JYWFCHRDOUXQMLWSZV7",1474877259342,36,2502,384,424,"About half","left","English",NA,8,2,423225
637,"A1CC9996A7KZDS:35BLDD71I75JYWFCHRDOUXQMLWSZV7",1474877261726,37,2383,384,377,"About half","right","English",NA,8,2,423225
638,"A1CC9996A7KZDS:35BLDD71I75JYWFCHRDOUXQMLWSZV7",1474877266045,38,4318,118,384,"About half","left","English",NA,8,2,423225
639,"A1CC9996A7KZDS:35BLDD71I75JYWFCHRDOUXQMLWSZV7",1474877268293,39,2247,118,51,"About half","left","English",NA,8,2,423225
640,"A1CC9996A7KZDS:35BLDD71I75JYWFCHRDOUXQMLWSZV7",1474877271029,40,2735,138,118,"About half","left","English",NA,8,2,423225
641,"A1CC9996A7KZDS:35BLDD71I75JYWFCHRDOUXQMLWSZV7",1474877273129,41,2099,138,350,"About half","right","English",NA,8,2,423225
642,"A1CC9996A7KZDS:35BLDD71I75JYWFCHRDOUXQMLWSZV7",1474877276114,42,2984,138,298,"About half","right","English",NA,8,2,423225
643,"A1CC9996A7KZDS:35BLDD71I75JYWFCHRDOUXQMLWSZV7",1474877278462,43,2347,138,125,"About half","right","English",NA,8,2,423225
644,"A1CC9996A7KZDS:35BLDD71I75JYWFCHRDOUXQMLWSZV7",1474877281502,44,3039,134,138,"About half","left","English",NA,8,2,423225
645,"A1CC9996A7KZDS:35BLDD71I75JYWFCHRDOUXQMLWSZV7",1474877283413,45,1910,144,134,"About half","left","English",NA,8,2,423225
646,"A1CC9996A7KZDS:35BLDD71I75JYWFCHRDOUXQMLWSZV7",1474877285913,46,2498,144,243,"About half","right","English",NA,8,2,423225
647,"A1CC9996A7KZDS:35BLDD71I75JYWFCHRDOUXQMLWSZV7",1474877288289,47,2375,144,123,"About half","left","English",NA,8,2,423225
648,"A1CC9996A7KZDS:35BLDD71I75JYWFCHRDOUXQMLWSZV7",1474877290236,48,1946,144,358,"About half","left","English",NA,8,2,423225
649,"A1CC9996A7KZDS:35BLDD71I75JYWFCHRDOUXQMLWSZV7",1474877292933,49,2696,144,128,"About half","left","English",NA,8,2,423225
650,"A1CC9996A7KZDS:35BLDD71I75JYWFCHRDOUXQMLWSZV7",1474877294920,50,1986,153,144,"About half","left","English",NA,8,2,423225
651,"A1CC9996A7KZDS:35BLDD71I75JYWFCHRDOUXQMLWSZV7",1474877302181,1,3776,160,431,"Some","right","English",NA,8,2,423225
652,"A1CC9996A7KZDS:35BLDD71I75JYWFCHRDOUXQMLWSZV7",1474877303747,2,1565,160,54,"Some","left","English",NA,8,2,423225
653,"A1CC9996A7KZDS:35BLDD71I75JYWFCHRDOUXQMLWSZV7",1474877305269,3,1521,173,160,"Some","left","English",NA,8,2,423225
654,"A1CC9996A7KZDS:35BLDD71I75JYWFCHRDOUXQMLWSZV7",1474877306976,4,1705,173,318,"Some","right","English",NA,8,2,423225
655,"A1CC9996A7KZDS:35BLDD71I75JYWFCHRDOUXQMLWSZV7",1474877308623,5,1646,173,163,"Some","left","English",NA,8,2,423225
656,"A1CC9996A7KZDS:35BLDD71I75JYWFCHRDOUXQMLWSZV7",1474877310571,6,1947,173,189,"Some","left","English",NA,8,2,423225
657,"A1CC9996A7KZDS:35BLDD71I75JYWFCHRDOUXQMLWSZV7",1474877312297,7,1725,173,376,"Some","left","English",NA,8,2,423225
658,"A1CC9996A7KZDS:35BLDD71I75JYWFCHRDOUXQMLWSZV7",1474877313987,8,1689,153,173,"Some","left","English",NA,8,2,423225
659,"A1CC9996A7KZDS:35BLDD71I75JYWFCHRDOUXQMLWSZV7",1474877315634,9,1646,153,406,"Some","left","English",NA,8,2,423225
660,"A1CC9996A7KZDS:35BLDD71I75JYWFCHRDOUXQMLWSZV7",1474877317381,10,1746,155,153,"Some","right","English",NA,8,2,423225
661,"A1CC9996A7KZDS:35BLDD71I75JYWFCHRDOUXQMLWSZV7",1474877319461,11,2079,156,155,"Some","left","English",NA,8,2,423225
662,"A1CC9996A7KZDS:35BLDD71I75JYWFCHRDOUXQMLWSZV7",1474877320959,12,1497,235,156,"Some","left","English",NA,8,2,423225
663,"A1CC9996A7KZDS:35BLDD71I75JYWFCHRDOUXQMLWSZV7",1474877322722,13,1761,235,219,"Some","right","English",NA,8,2,423225
664,"A1CC9996A7KZDS:35BLDD71I75JYWFCHRDOUXQMLWSZV7",1474877324616,14,1893,237,235,"Some","left","English",NA,8,2,423225
665,"A1CC9996A7KZDS:35BLDD71I75JYWFCHRDOUXQMLWSZV7",1474877326595,15,1978,237,222,"Some","right","English",NA,8,2,423225
666,"A1CC9996A7KZDS:35BLDD71I75JYWFCHRDOUXQMLWSZV7",1474877328121,16,1525,237,236,"Some","left","English",NA,8,2,423225
667,"A1CC9996A7KZDS:35BLDD71I75JYWFCHRDOUXQMLWSZV7",1474877329548,17,1425,237,217,"Some","left","English",NA,8,2,423225
668,"A1CC9996A7KZDS:35BLDD71I75JYWFCHRDOUXQMLWSZV7",1474877331791,18,2242,230,237,"Some","left","English",NA,8,2,423225
669,"A1CC9996A7KZDS:35BLDD71I75JYWFCHRDOUXQMLWSZV7",1474877333454,19,1662,223,230,"Some","right","English",NA,8,2,423225
670,"A1CC9996A7KZDS:35BLDD71I75JYWFCHRDOUXQMLWSZV7",1474877335177,20,1722,223,235,"Some","left","English",NA,8,2,423225
671,"A1CC9996A7KZDS:35BLDD71I75JYWFCHRDOUXQMLWSZV7",1474877336727,21,1549,223,405,"Some","left","English",NA,8,2,423225
672,"A1CC9996A7KZDS:35BLDD71I75JYWFCHRDOUXQMLWSZV7",1474877340436,22,3708,212,223,"Some","left","English",NA,8,2,423225
673,"A1CC9996A7KZDS:35BLDD71I75JYWFCHRDOUXQMLWSZV7",1474877343092,23,2655,212,83,"Some","right","English",NA,8,2,423225
674,"A1CC9996A7KZDS:35BLDD71I75JYWFCHRDOUXQMLWSZV7",1474877344694,24,1601,212,283,"Some","left","English",NA,8,2,423225
675,"A1CC9996A7KZDS:35BLDD71I75JYWFCHRDOUXQMLWSZV7",1474877346597,25,1902,212,193,"Some","left","English",NA,8,2,423225
676,"A1CC9996A7KZDS:35BLDD71I75JYWFCHRDOUXQMLWSZV7",1474877348216,26,1618,200,212,"Some","right","English",NA,8,2,423225
677,"A1CC9996A7KZDS:35BLDD71I75JYWFCHRDOUXQMLWSZV7",1474877349822,27,1605,200,398,"Some","right","English",NA,8,2,423225
678,"A1CC9996A7KZDS:35BLDD71I75JYWFCHRDOUXQMLWSZV7",1474877351882,28,2058,200,209,"Some","right","English",NA,8,2,423225
679,"A1CC9996A7KZDS:35BLDD71I75JYWFCHRDOUXQMLWSZV7",1474877354097,29,2215,200,195,"Some","right","English",NA,8,2,423225
680,"A1CC9996A7KZDS:35BLDD71I75JYWFCHRDOUXQMLWSZV7",1474877356301,30,2203,28,200,"Some","left","English",NA,8,2,423225
681,"A1CC9996A7KZDS:35BLDD71I75JYWFCHRDOUXQMLWSZV7",1474877357939,31,1637,21,28,"Some","left","English",NA,8,2,423225
682,"A1CC9996A7KZDS:35BLDD71I75JYWFCHRDOUXQMLWSZV7",1474877359654,32,1714,8,21,"Some","left","English",NA,8,2,423225
683,"A1CC9996A7KZDS:35BLDD71I75JYWFCHRDOUXQMLWSZV7",1474877362607,33,2952,228,8,"Some","right","English",NA,8,2,423225
684,"A1CC9996A7KZDS:35BLDD71I75JYWFCHRDOUXQMLWSZV7",1474877364386,34,1778,210,228,"Some","left","English",NA,8,2,423225
685,"A1CC9996A7KZDS:35BLDD71I75JYWFCHRDOUXQMLWSZV7",1474877366104,35,1717,210,208,"Some","left","English",NA,8,2,423225
686,"A1CC9996A7KZDS:35BLDD71I75JYWFCHRDOUXQMLWSZV7",1474877368115,36,2010,210,221,"Some","right","English",NA,8,2,423225
687,"A1CC9996A7KZDS:35BLDD71I75JYWFCHRDOUXQMLWSZV7",1474877369682,37,1566,218,210,"Some","right","English",NA,8,2,423225
688,"A1CC9996A7KZDS:35BLDD71I75JYWFCHRDOUXQMLWSZV7",1474877371309,38,1626,215,218,"Some","left","English",NA,8,2,423225
689,"A1CC9996A7KZDS:35BLDD71I75JYWFCHRDOUXQMLWSZV7",1474877373159,39,1849,63,215,"Some","left","English",NA,8,2,423225
690,"A1CC9996A7KZDS:35BLDD71I75JYWFCHRDOUXQMLWSZV7",1474877375006,40,1846,63,56,"Some","left","English",NA,8,2,423225
691,"A1CC9996A7KZDS:35BLDD71I75JYWFCHRDOUXQMLWSZV7",1474877377074,41,2067,63,47,"Some","right","English",NA,8,2,423225
692,"A1CC9996A7KZDS:35BLDD71I75JYWFCHRDOUXQMLWSZV7",1474877378719,42,1645,63,54,"Some","right","English",NA,8,2,423225
693,"A1CC9996A7KZDS:35BLDD71I75JYWFCHRDOUXQMLWSZV7",1474877380787,43,2067,63,370,"Some","right","English",NA,8,2,423225
694,"A1CC9996A7KZDS:35BLDD71I75JYWFCHRDOUXQMLWSZV7",1474877382715,44,1927,63,120,"Some","left","English",NA,8,2,423225
695,"A1CC9996A7KZDS:35BLDD71I75JYWFCHRDOUXQMLWSZV7",1474877384229,45,1514,63,60,"Some","right","English",NA,8,2,423225
696,"A1CC9996A7KZDS:35BLDD71I75JYWFCHRDOUXQMLWSZV7",1474877386012,46,1782,41,63,"Some","left","English",NA,8,2,423225
697,"A1CC9996A7KZDS:35BLDD71I75JYWFCHRDOUXQMLWSZV7",1474877387526,47,1513,48,41,"Some","left","English",NA,8,2,423225
698,"A1CC9996A7KZDS:35BLDD71I75JYWFCHRDOUXQMLWSZV7",1474877389362,48,1835,41,48,"Some","left","English",NA,8,2,423225
699,"A1CC9996A7KZDS:35BLDD71I75JYWFCHRDOUXQMLWSZV7",1474877391553,49,2191,38,41,"Some","right","English",NA,8,2,423225
700,"A1CC9996A7KZDS:35BLDD71I75JYWFCHRDOUXQMLWSZV7",1474877394202,50,2648,38,55,"Some","left","English",NA,8,2,423225
701,"A1CC9996A7KZDS:35BLDD71I75JYWFCHRDOUXQMLWSZV7",1474877400080,1,4009,309,428,"Most","left","English",NA,8,2,423225
702,"A1CC9996A7KZDS:35BLDD71I75JYWFCHRDOUXQMLWSZV7",1474877401762,2,1681,309,35,"Most","left","English",NA,8,2,423225
703,"A1CC9996A7KZDS:35BLDD71I75JYWFCHRDOUXQMLWSZV7",1474877403594,3,1831,309,22,"Most","right","English",NA,8,2,423225
704,"A1CC9996A7KZDS:35BLDD71I75JYWFCHRDOUXQMLWSZV7",1474877404980,4,1385,309,33,"Most","left","English",NA,8,2,423225
705,"A1CC9996A7KZDS:35BLDD71I75JYWFCHRDOUXQMLWSZV7",1474877407116,5,2135,309,311,"Most","right","English",NA,8,2,423225
706,"A1CC9996A7KZDS:35BLDD71I75JYWFCHRDOUXQMLWSZV7",1474877408727,6,1610,301,309,"Most","right","English",NA,8,2,423225
707,"A1CC9996A7KZDS:35BLDD71I75JYWFCHRDOUXQMLWSZV7",1474877410798,7,2070,298,301,"Most","right","English",NA,8,2,423225
708,"A1CC9996A7KZDS:35BLDD71I75JYWFCHRDOUXQMLWSZV7",1474877412497,8,1698,298,233,"Most","left","English",NA,8,2,423225
709,"A1CC9996A7KZDS:35BLDD71I75JYWFCHRDOUXQMLWSZV7",1474877414156,9,1658,298,296,"Most","right","English",NA,8,2,423225
710,"A1CC9996A7KZDS:35BLDD71I75JYWFCHRDOUXQMLWSZV7",1474877415595,10,1438,298,147,"Most","left","English",NA,8,2,423225
711,"A1CC9996A7KZDS:35BLDD71I75JYWFCHRDOUXQMLWSZV7",1474877417206,11,1610,298,269,"Most","left","English",NA,8,2,423225
712,"A1CC9996A7KZDS:35BLDD71I75JYWFCHRDOUXQMLWSZV7",1474877419269,12,2062,299,298,"Most","left","English",NA,8,2,423225
713,"A1CC9996A7KZDS:35BLDD71I75JYWFCHRDOUXQMLWSZV7",1474877420953,13,1683,299,306,"Most","right","English",NA,8,2,423225
714,"A1CC9996A7KZDS:35BLDD71I75JYWFCHRDOUXQMLWSZV7",1474877422540,14,1586,299,44,"Most","left","English",NA,8,2,423225
715,"A1CC9996A7KZDS:35BLDD71I75JYWFCHRDOUXQMLWSZV7",1474877424186,15,1646,292,299,"Most","left","English",NA,8,2,423225
716,"A1CC9996A7KZDS:35BLDD71I75JYWFCHRDOUXQMLWSZV7",1474877425797,16,1610,292,148,"Most","left","English",NA,8,2,423225
717,"A1CC9996A7KZDS:35BLDD71I75JYWFCHRDOUXQMLWSZV7",1474877429672,17,3874,292,286,"Most","right","English",NA,8,2,423225
718,"A1CC9996A7KZDS:35BLDD71I75JYWFCHRDOUXQMLWSZV7",1474877431407,18,1734,394,292,"Most","left","English",NA,8,2,423225
719,"A1CC9996A7KZDS:35BLDD71I75JYWFCHRDOUXQMLWSZV7",1474877432785,19,1377,394,226,"Most","left","English",NA,8,2,423225
720,"A1CC9996A7KZDS:35BLDD71I75JYWFCHRDOUXQMLWSZV7",1474877435229,20,2443,394,375,"Most","right","English",NA,8,2,423225
721,"A1CC9996A7KZDS:35BLDD71I75JYWFCHRDOUXQMLWSZV7",1474877437061,21,1831,394,374,"Most","left","English",NA,8,2,423225
722,"A1CC9996A7KZDS:35BLDD71I75JYWFCHRDOUXQMLWSZV7",1474877438463,22,1401,404,394,"Most","left","English",NA,8,2,423225
723,"A1CC9996A7KZDS:35BLDD71I75JYWFCHRDOUXQMLWSZV7",1474877441670,23,3206,404,343,"Most","right","English",NA,8,2,423225
724,"A1CC9996A7KZDS:35BLDD71I75JYWFCHRDOUXQMLWSZV7",1474877443353,24,1682,404,15,"Most","right","English",NA,8,2,423225
725,"A1CC9996A7KZDS:35BLDD71I75JYWFCHRDOUXQMLWSZV7",1474877446387,25,3033,404,10,"Most","right","English",NA,8,2,423225
726,"A1CC9996A7KZDS:35BLDD71I75JYWFCHRDOUXQMLWSZV7",1474877448141,26,1753,404,308,"Most","left","English",NA,8,2,423225
727,"A1CC9996A7KZDS:35BLDD71I75JYWFCHRDOUXQMLWSZV7",1474877449772,27,1630,404,37,"Most","right","English",NA,8,2,423225
728,"A1CC9996A7KZDS:35BLDD71I75JYWFCHRDOUXQMLWSZV7",1474877451519,28,1746,404,411,"Most","left","English",NA,8,2,423225
729,"A1CC9996A7KZDS:35BLDD71I75JYWFCHRDOUXQMLWSZV7",1474877453430,29,1910,404,311,"Most","right","English",NA,8,2,423225
730,"A1CC9996A7KZDS:35BLDD71I75JYWFCHRDOUXQMLWSZV7",1474877455537,30,2106,404,58,"Most","right","English",NA,8,2,423225
731,"A1CC9996A7KZDS:35BLDD71I75JYWFCHRDOUXQMLWSZV7",1474877457816,31,2278,404,397,"Most","right","English",NA,8,2,423225
732,"A1CC9996A7KZDS:35BLDD71I75JYWFCHRDOUXQMLWSZV7",1474877460741,32,2924,416,404,"Most","left","English",NA,8,2,423225
733,"A1CC9996A7KZDS:35BLDD71I75JYWFCHRDOUXQMLWSZV7",1474877462748,33,2006,360,416,"Most","left","English",NA,8,2,423225
734,"A1CC9996A7KZDS:35BLDD71I75JYWFCHRDOUXQMLWSZV7",1474877465095,34,2346,360,269,"Most","right","English",NA,8,2,423225
735,"A1CC9996A7KZDS:35BLDD71I75JYWFCHRDOUXQMLWSZV7",1474877466934,35,1838,360,322,"Most","left","English",NA,8,2,423225
736,"A1CC9996A7KZDS:35BLDD71I75JYWFCHRDOUXQMLWSZV7",1474877468488,36,1553,380,360,"Most","right","English",NA,8,2,423225
737,"A1CC9996A7KZDS:35BLDD71I75JYWFCHRDOUXQMLWSZV7",1474877469950,37,1461,380,406,"Most","left","English",NA,8,2,423225
738,"A1CC9996A7KZDS:35BLDD71I75JYWFCHRDOUXQMLWSZV7",1474877471520,38,1569,380,363,"Most","right","English",NA,8,2,423225
739,"A1CC9996A7KZDS:35BLDD71I75JYWFCHRDOUXQMLWSZV7",1474877472866,39,1345,380,360,"Most","left","English",NA,8,2,423225
740,"A1CC9996A7KZDS:35BLDD71I75JYWFCHRDOUXQMLWSZV7",1474877475073,40,2206,380,392,"Most","right","English",NA,8,2,423225
741,"A1CC9996A7KZDS:35BLDD71I75JYWFCHRDOUXQMLWSZV7",1474877476555,41,1481,366,380,"Most","left","English",NA,8,2,423225
742,"A1CC9996A7KZDS:35BLDD71I75JYWFCHRDOUXQMLWSZV7",1474877477985,42,1429,368,366,"Most","left","English",NA,8,2,423225
743,"A1CC9996A7KZDS:35BLDD71I75JYWFCHRDOUXQMLWSZV7",1474877479532,43,1545,368,60,"Most","left","English",NA,8,2,423225
744,"A1CC9996A7KZDS:35BLDD71I75JYWFCHRDOUXQMLWSZV7",1474877481054,44,1521,368,121,"Most","left","English",NA,8,2,423225
745,"A1CC9996A7KZDS:35BLDD71I75JYWFCHRDOUXQMLWSZV7",1474877482756,45,1701,381,368,"Most","right","English",NA,8,2,423225
746,"A1CC9996A7KZDS:35BLDD71I75JYWFCHRDOUXQMLWSZV7",1474877484230,46,1473,358,381,"Most","left","English",NA,8,2,423225
747,"A1CC9996A7KZDS:35BLDD71I75JYWFCHRDOUXQMLWSZV7",1474877485584,47,1353,343,358,"Most","left","English",NA,8,2,423225
748,"A1CC9996A7KZDS:35BLDD71I75JYWFCHRDOUXQMLWSZV7",1474877487095,48,1510,356,343,"Most","right","English",NA,8,2,423225
749,"A1CC9996A7KZDS:35BLDD71I75JYWFCHRDOUXQMLWSZV7",1474877488640,49,1544,356,172,"Most","left","English",NA,8,2,423225
750,"A1CC9996A7KZDS:35BLDD71I75JYWFCHRDOUXQMLWSZV7",1474877490271,50,1630,361,356,"Most","left","English",NA,8,2,423225
751,"A1CC9996A7KZDS:35BLDD71I75JYWFCHRDOUXQMLWSZV7",1474877493803,1,2009,74,358,"Less than half","right","English",NA,8,2,423225
752,"A1CC9996A7KZDS:35BLDD71I75JYWFCHRDOUXQMLWSZV7",1474877495466,2,1662,61,74,"Less than half","right","English",NA,8,2,423225
753,"A1CC9996A7KZDS:35BLDD71I75JYWFCHRDOUXQMLWSZV7",1474877497324,3,1857,61,110,"Less than half","left","English",NA,8,2,423225
754,"A1CC9996A7KZDS:35BLDD71I75JYWFCHRDOUXQMLWSZV7",1474877498938,4,1613,61,77,"Less than half","left","English",NA,8,2,423225
755,"A1CC9996A7KZDS:35BLDD71I75JYWFCHRDOUXQMLWSZV7",1474877501782,5,2843,45,61,"Less than half","left","English",NA,8,2,423225
756,"A1CC9996A7KZDS:35BLDD71I75JYWFCHRDOUXQMLWSZV7",1474877504574,6,2791,45,54,"Less than half","left","English",NA,8,2,423225
757,"A1CC9996A7KZDS:35BLDD71I75JYWFCHRDOUXQMLWSZV7",1474877506356,7,1781,58,45,"Less than half","left","English",NA,8,2,423225
758,"A1CC9996A7KZDS:35BLDD71I75JYWFCHRDOUXQMLWSZV7",1474877507910,8,1553,53,58,"Less than half","left","English",NA,8,2,423225
759,"A1CC9996A7KZDS:35BLDD71I75JYWFCHRDOUXQMLWSZV7",1474877511395,9,3484,361,53,"Less than half","left","English",NA,8,2,423225
760,"A1CC9996A7KZDS:35BLDD71I75JYWFCHRDOUXQMLWSZV7",1474877512957,10,1561,361,161,"Less than half","right","English",NA,8,2,423225
761,"A1CC9996A7KZDS:35BLDD71I75JYWFCHRDOUXQMLWSZV7",1474877517358,11,4400,373,361,"Less than half","left","English",NA,8,2,423225
762,"A1CC9996A7KZDS:35BLDD71I75JYWFCHRDOUXQMLWSZV7",1474877520390,12,3031,373,358,"Less than half","right","English",NA,8,2,423225
763,"A1CC9996A7KZDS:35BLDD71I75JYWFCHRDOUXQMLWSZV7",1474877522161,13,1770,365,373,"Less than half","right","English",NA,8,2,423225
764,"A1CC9996A7KZDS:35BLDD71I75JYWFCHRDOUXQMLWSZV7",1474877523743,14,1581,272,365,"Less than half","right","English",NA,8,2,423225
765,"A1CC9996A7KZDS:35BLDD71I75JYWFCHRDOUXQMLWSZV7",1474877525489,15,1745,272,273,"Less than half","right","English",NA,8,2,423225
766,"A1CC9996A7KZDS:35BLDD71I75JYWFCHRDOUXQMLWSZV7",1474877527143,16,1653,274,272,"Less than half","right","English",NA,8,2,423225
767,"A1CC9996A7KZDS:35BLDD71I75JYWFCHRDOUXQMLWSZV7",1474877529682,17,2538,274,303,"Less than half","right","English",NA,8,2,423225
768,"A1CC9996A7KZDS:35BLDD71I75JYWFCHRDOUXQMLWSZV7",1474877531336,18,1653,274,291,"Less than half","left","English",NA,8,2,423225
769,"A1CC9996A7KZDS:35BLDD71I75JYWFCHRDOUXQMLWSZV7",1474877532898,19,1561,274,285,"Less than half","right","English",NA,8,2,423225
770,"A1CC9996A7KZDS:35BLDD71I75JYWFCHRDOUXQMLWSZV7",1474877534836,20,1937,285,274,"Less than half","right","English",NA,8,2,423225
771,"A1CC9996A7KZDS:35BLDD71I75JYWFCHRDOUXQMLWSZV7",1474877536386,21,1549,285,342,"Less than half","left","English",NA,8,2,423225
772,"A1CC9996A7KZDS:35BLDD71I75JYWFCHRDOUXQMLWSZV7",1474877538100,22,1713,285,347,"Less than half","right","English",NA,8,2,423225
773,"A1CC9996A7KZDS:35BLDD71I75JYWFCHRDOUXQMLWSZV7",1474877539842,23,1741,93,285,"Less than half","right","English",NA,8,2,423225
774,"A1CC9996A7KZDS:35BLDD71I75JYWFCHRDOUXQMLWSZV7",1474877541717,24,1874,89,93,"Less than half","left","English",NA,8,2,423225
775,"A1CC9996A7KZDS:35BLDD71I75JYWFCHRDOUXQMLWSZV7",1474877543407,25,1689,70,89,"Less than half","left","English",NA,8,2,423225
776,"A1CC9996A7KZDS:35BLDD71I75JYWFCHRDOUXQMLWSZV7",1474877545205,26,1797,70,58,"Less than half","right","English",NA,8,2,423225
777,"A1CC9996A7KZDS:35BLDD71I75JYWFCHRDOUXQMLWSZV7",1474877546671,27,1465,70,344,"Less than half","left","English",NA,8,2,423225
778,"A1CC9996A7KZDS:35BLDD71I75JYWFCHRDOUXQMLWSZV7",1474877548180,28,1508,72,70,"Less than half","left","English",NA,8,2,423225
779,"A1CC9996A7KZDS:35BLDD71I75JYWFCHRDOUXQMLWSZV7",1474877549902,29,1721,72,86,"Less than half","left","English",NA,8,2,423225
780,"A1CC9996A7KZDS:35BLDD71I75JYWFCHRDOUXQMLWSZV7",1474877551608,30,1705,72,55,"Less than half","left","English",NA,8,2,423225
781,"A1CC9996A7KZDS:35BLDD71I75JYWFCHRDOUXQMLWSZV7",1474877553190,31,1581,72,91,"Less than half","left","English",NA,8,2,423225
782,"A1CC9996A7KZDS:35BLDD71I75JYWFCHRDOUXQMLWSZV7",1474877555666,32,2475,72,73,"Less than half","left","English",NA,8,2,423225
783,"A1CC9996A7KZDS:35BLDD71I75JYWFCHRDOUXQMLWSZV7",1474877557223,33,1556,79,72,"Less than half","left","English",NA,8,2,423225
784,"A1CC9996A7KZDS:35BLDD71I75JYWFCHRDOUXQMLWSZV7",1474877558673,34,1449,79,390,"Less than half","left","English",NA,8,2,423225
785,"A1CC9996A7KZDS:35BLDD71I75JYWFCHRDOUXQMLWSZV7",1474877561600,35,2926,31,79,"Less than half","right","English",NA,8,2,423225
786,"A1CC9996A7KZDS:35BLDD71I75JYWFCHRDOUXQMLWSZV7",1474877563234,36,1633,31,42,"Less than half","left","English",NA,8,2,423225
787,"A1CC9996A7KZDS:35BLDD71I75JYWFCHRDOUXQMLWSZV7",1474877564688,37,1453,46,31,"Less than half","left","English",NA,8,2,423225
788,"A1CC9996A7KZDS:35BLDD71I75JYWFCHRDOUXQMLWSZV7",1474877566105,38,1416,28,46,"Less than half","left","English",NA,8,2,423225
789,"A1CC9996A7KZDS:35BLDD71I75JYWFCHRDOUXQMLWSZV7",1474877567555,39,1449,28,42,"Less than half","left","English",NA,8,2,423225
790,"A1CC9996A7KZDS:35BLDD71I75JYWFCHRDOUXQMLWSZV7",1474877569409,40,1853,28,116,"Less than half","right","English",NA,8,2,423225
791,"A1CC9996A7KZDS:35BLDD71I75JYWFCHRDOUXQMLWSZV7",1474877570979,41,1569,28,270,"Less than half","left","English",NA,8,2,423225
792,"A1CC9996A7KZDS:35BLDD71I75JYWFCHRDOUXQMLWSZV7",1474877572529,42,1549,24,28,"Less than half","left","English",NA,8,2,423225
793,"A1CC9996A7KZDS:35BLDD71I75JYWFCHRDOUXQMLWSZV7",1474877574123,43,1593,24,11,"Less than half","left","English",NA,8,2,423225
794,"A1CC9996A7KZDS:35BLDD71I75JYWFCHRDOUXQMLWSZV7",1474877575476,44,1352,7,24,"Less than half","left","English",NA,8,2,423225
795,"A1CC9996A7KZDS:35BLDD71I75JYWFCHRDOUXQMLWSZV7",1474877576850,45,1373,7,419,"Less than half","left","English",NA,8,2,423225
796,"A1CC9996A7KZDS:35BLDD71I75JYWFCHRDOUXQMLWSZV7",1474877578556,46,1705,7,8,"Less than half","left","English",NA,8,2,423225
797,"A1CC9996A7KZDS:35BLDD71I75JYWFCHRDOUXQMLWSZV7",1474877581507,47,2950,92,7,"Less than half","right","English",NA,8,2,423225
798,"A1CC9996A7KZDS:35BLDD71I75JYWFCHRDOUXQMLWSZV7",1474877583318,48,1810,92,95,"Less than half","right","English",NA,8,2,423225
799,"A1CC9996A7KZDS:35BLDD71I75JYWFCHRDOUXQMLWSZV7",1474877584835,49,1516,58,92,"Less than half","left","English",NA,8,2,423225
800,"A1CC9996A7KZDS:35BLDD71I75JYWFCHRDOUXQMLWSZV7",1474877586397,50,1561,58,409,"Less than half","right","English",NA,8,2,423225
801,"A1E6F4QKK5XXKO:3ZAZR5XV02QNZN9CQAIJ452X0PDCZM",1474877002484,1,140,375,97,"Less than half","right","English","This was interesting. Thank you.",8,4,468743
802,"A1E6F4QKK5XXKO:3ZAZR5XV02QNZN9CQAIJ452X0PDCZM",1474877019475,2,16986,370,375,"Less than half","right","English","This was interesting. Thank you.",8,4,468743
803,"A1E6F4QKK5XXKO:3ZAZR5XV02QNZN9CQAIJ452X0PDCZM",1474877024390,3,4909,1,370,"Less than half","right","English","This was interesting. Thank you.",8,4,468743
804,"A1E6F4QKK5XXKO:3ZAZR5XV02QNZN9CQAIJ452X0PDCZM",1474877032467,4,8071,1,414,"Less than half","right","English","This was interesting. Thank you.",8,4,468743
805,"A1E6F4QKK5XXKO:3ZAZR5XV02QNZN9CQAIJ452X0PDCZM",1474877036524,5,4051,1,214,"Less than half","right","English","This was interesting. Thank you.",8,4,468743
806,"A1E6F4QKK5XXKO:3ZAZR5XV02QNZN9CQAIJ452X0PDCZM",1474877039747,6,3216,160,1,"Less than half","right","English","This was interesting. Thank you.",8,4,468743
807,"A1E6F4QKK5XXKO:3ZAZR5XV02QNZN9CQAIJ452X0PDCZM",1474877043742,7,3989,160,177,"Less than half","left","English","This was interesting. Thank you.",8,4,468743
808,"A1E6F4QKK5XXKO:3ZAZR5XV02QNZN9CQAIJ452X0PDCZM",1474877048116,8,4367,160,346,"Less than half","right","English","This was interesting. Thank you.",8,4,468743
809,"A1E6F4QKK5XXKO:3ZAZR5XV02QNZN9CQAIJ452X0PDCZM",1474877049826,9,1703,160,203,"Less than half","left","English","This was interesting. Thank you.",8,4,468743
810,"A1E6F4QKK5XXKO:3ZAZR5XV02QNZN9CQAIJ452X0PDCZM",1474877052114,10,2283,167,160,"Less than half","left","English","This was interesting. Thank you.",8,4,468743
811,"A1E6F4QKK5XXKO:3ZAZR5XV02QNZN9CQAIJ452X0PDCZM",1474877053106,11,987,183,167,"Less than half","right","English","This was interesting. Thank you.",8,4,468743
