"","id","itemTime","trial","RT","number_chosen","number_not_chosen","quantifier","clicked_left","language","comments","engagement","difficulty","time"
"1","A1FYTTGF0QACU9:3F6KKYWMNC93NQ17NI20TOD6B9CDNX",1474726677361,1,11882,210,156,"Half","right","English",NA,5,4,439100
"2","A1FYTTGF0QACU9:3F6KKYWMNC93NQ17NI20TOD6B9CDNX",1474726684300,2,6937,219,210,"Half","right","English",NA,5,4,439100
"3","A1FYTTGF0QACU9:3F6KKYWMNC93NQ17NI20TOD6B9CDNX",1474726692791,3,8490,214,219,"Half","right","English",NA,5,4,439100
"4","A1FYTTGF0QACU9:3F6KKYWMNC93NQ17NI20TOD6B9CDNX",1474726696742,4,3950,214,211,"Half","left","English",NA,5,4,439100
"5","A1FYTTGF0QACU9:3F6KKYWMNC93NQ17NI20TOD6B9CDNX",1474726700270,5,3527,209,214,"Half","right","English",NA,5,4,439100
"6","A1FYTTGF0QACU9:3F6KKYWMNC93NQ17NI20TOD6B9CDNX",1474726703938,6,3667,225,209,"Half","left","English",NA,5,4,439100
"7","A1FYTTGF0QACU9:3F6KKYWMNC93NQ17NI20TOD6B9CDNX",1474726711248,7,7308,149,225,"Half","left","English",NA,5,4,439100
"8","A1FYTTGF0QACU9:3F6KKYWMNC93NQ17NI20TOD6B9CDNX",1474726716613,8,5364,158,149,"Half","left","English",NA,5,4,439100
"9","A1FYTTGF0QACU9:3F6KKYWMNC93NQ17NI20TOD6B9CDNX",1474726722129,9,5515,140,158,"Half","left","English",NA,5,4,439100
"10","A1FYTTGF0QACU9:3F6KKYWMNC93NQ17NI20TOD6B9CDNX",1474726725233,10,3102,140,101,"Half","right","English",NA,5,4,439100
"11","A1FYTTGF0QACU9:3F6KKYWMNC93NQ17NI20TOD6B9CDNX",1474726728109,11,2876,153,140,"Half","left","English",NA,5,4,439100
"12","A1FYTTGF0QACU9:3F6KKYWMNC93NQ17NI20TOD6B9CDNX",1474726730136,12,2025,153,425,"Half","right","English",NA,5,4,439100
"13","A1FYTTGF0QACU9:3F6KKYWMNC93NQ17NI20TOD6B9CDNX",1474726736138,13,6000,128,153,"Half","left","English",NA,5,4,439100
"14","A1FYTTGF0QACU9:3F6KKYWMNC93NQ17NI20TOD6B9CDNX",1474726738279,14,2138,128,188,"Half","right","English",NA,5,4,439100
"15","A1FYTTGF0QACU9:3F6KKYWMNC93NQ17NI20TOD6B9CDNX",1474726741667,15,3387,122,128,"Half","right","English",NA,5,4,439100
"16","A1FYTTGF0QACU9:3F6KKYWMNC93NQ17NI20TOD6B9CDNX",1474726744748,16,3079,122,16,"Half","right","English",NA,5,4,439100
"17","A1FYTTGF0QACU9:3F6KKYWMNC93NQ17NI20TOD6B9CDNX",1474726747628,17,2879,122,104,"Half","right","English",NA,5,4,439100
"18","A1FYTTGF0QACU9:3F6KKYWMNC93NQ17NI20TOD6B9CDNX",1474726749242,18,1613,122,425,"Half","right","English",NA,5,4,439100
"19","A1FYTTGF0QACU9:3F6KKYWMNC93NQ17NI20TOD6B9CDNX",1474726752254,19,3011,185,122,"Half","left","English",NA,5,4,439100
"20","A1FYTTGF0QACU9:3F6KKYWMNC93NQ17NI20TOD6B9CDNX",1474726756102,20,3847,185,196,"Half","right","English",NA,5,4,439100
"21","A1FYTTGF0QACU9:3F6KKYWMNC93NQ17NI20TOD6B9CDNX",1474726758196,21,2092,185,264,"Half","left","English",NA,5,4,439100
"22","A1FYTTGF0QACU9:3F6KKYWMNC93NQ17NI20TOD6B9CDNX",1474726760761,22,2564,185,295,"Half","right","English",NA,5,4,439100
"23","A1FYTTGF0QACU9:3F6KKYWMNC93NQ17NI20TOD6B9CDNX",1474726763455,23,2693,185,180,"Half","right","English",NA,5,4,439100
"24","A1FYTTGF0QACU9:3F6KKYWMNC93NQ17NI20TOD6B9CDNX",1474726766441,24,2985,185,185,"Half","right","English",NA,5,4,439100
"25","A1FYTTGF0QACU9:3F6KKYWMNC93NQ17NI20TOD6B9CDNX",1474726769536,25,3094,185,269,"Half","left","English",NA,5,4,439100
"26","A1FYTTGF0QACU9:3F6KKYWMNC93NQ17NI20TOD6B9CDNX",1474726774038,26,4500,185,201,"Half","right","English",NA,5,4,439100
"27","A1FYTTGF0QACU9:3F6KKYWMNC93NQ17NI20TOD6B9CDNX",1474726775759,27,1720,185,39,"Half","right","English",NA,5,4,439100
"28","A1FYTTGF0QACU9:3F6KKYWMNC93NQ17NI20TOD6B9CDNX",1474726777812,28,2052,197,185,"Half","right","English",NA,5,4,439100
"29","A1FYTTGF0QACU9:3F6KKYWMNC93NQ17NI20TOD6B9CDNX",1474726780494,29,2681,198,197,"Half","right","English",NA,5,4,439100
"30","A1FYTTGF0QACU9:3F6KKYWMNC93NQ17NI20TOD6B9CDNX",1474726782779,30,2284,198,36,"Half","left","English",NA,5,4,439100
"31","A1FYTTGF0QACU9:3F6KKYWMNC93NQ17NI20TOD6B9CDNX",1474726784806,31,2025,198,403,"Half","right","English",NA,5,4,439100
"32","A1FYTTGF0QACU9:3F6KKYWMNC93NQ17NI20TOD6B9CDNX",1474726788462,32,3653,218,198,"Half","right","English",NA,5,4,439100
"33","A1FYTTGF0QACU9:3F6KKYWMNC93NQ17NI20TOD6B9CDNX",1474726790168,33,1705,218,13,"Half","right","English",NA,5,4,439100
"34","A1FYTTGF0QACU9:3F6KKYWMNC93NQ17NI20TOD6B9CDNX",1474726792400,34,2230,218,221,"Half","right","English",NA,5,4,439100
"35","A1FYTTGF0QACU9:3F6KKYWMNC93NQ17NI20TOD6B9CDNX",1474726795720,35,3318,218,210,"Half","right","English",NA,5,4,439100
"36","A1FYTTGF0QACU9:3F6KKYWMNC93NQ17NI20TOD6B9CDNX",1474726797427,36,1706,218,288,"Half","right","English",NA,5,4,439100
"37","A1FYTTGF0QACU9:3F6KKYWMNC93NQ17NI20TOD6B9CDNX",1474726800158,37,2730,218,74,"Half","left","English",NA,5,4,439100
"38","A1FYTTGF0QACU9:3F6KKYWMNC93NQ17NI20TOD6B9CDNX",1474726804993,38,4834,207,218,"Half","left","English",NA,5,4,439100
"39","A1FYTTGF0QACU9:3F6KKYWMNC93NQ17NI20TOD6B9CDNX",1474726809273,39,4279,211,207,"Half","right","English",NA,5,4,439100
"40","A1FYTTGF0QACU9:3F6KKYWMNC93NQ17NI20TOD6B9CDNX",1474726813455,40,4181,211,203,"Half","right","English",NA,5,4,439100
"41","A1FYTTGF0QACU9:3F6KKYWMNC93NQ17NI20TOD6B9CDNX",1474726819523,41,6066,231,211,"Half","right","English",NA,5,4,439100
"42","A1FYTTGF0QACU9:3F6KKYWMNC93NQ17NI20TOD6B9CDNX",1474726821397,42,1873,231,238,"Half","right","English",NA,5,4,439100
"43","A1FYTTGF0QACU9:3F6KKYWMNC93NQ17NI20TOD6B9CDNX",1474726823089,43,1691,231,340,"Half","right","English",NA,5,4,439100
"44","A1FYTTGF0QACU9:3F6KKYWMNC93NQ17NI20TOD6B9CDNX",1474726825692,44,2601,231,117,"Half","left","English",NA,5,4,439100
"45","A1FYTTGF0QACU9:3F6KKYWMNC93NQ17NI20TOD6B9CDNX",1474726827745,45,2052,241,231,"Half","right","English",NA,5,4,439100
"46","A1FYTTGF0QACU9:3F6KKYWMNC93NQ17NI20TOD6B9CDNX",1474726829373,46,1626,241,51,"Half","left","English",NA,5,4,439100
"47","A1FYTTGF0QACU9:3F6KKYWMNC93NQ17NI20TOD6B9CDNX",1474726831308,47,1934,241,127,"Half","left","English",NA,5,4,439100
"48","A1FYTTGF0QACU9:3F6KKYWMNC93NQ17NI20TOD6B9CDNX",1474726834578,48,3270,241,93,"Half","right","English",NA,5,4,439100
"49","A1FYTTGF0QACU9:3F6KKYWMNC93NQ17NI20TOD6B9CDNX",1474726838258,49,3678,241,169,"Half","left","English",NA,5,4,439100
"50","A1FYTTGF0QACU9:3F6KKYWMNC93NQ17NI20TOD6B9CDNX",1474726842573,50,4314,241,212,"Half","right","English",NA,5,4,439100
"51","A1FYTTGF0QACU9:3F6KKYWMNC93NQ17NI20TOD6B9CDNX",1474726853179,1,5320,212,84,"Most","left","English",NA,5,4,439100
"52","A1FYTTGF0QACU9:3F6KKYWMNC93NQ17NI20TOD6B9CDNX",1474726854991,2,1811,226,212,"Most","right","English",NA,5,4,439100
"53","A1FYTTGF0QACU9:3F6KKYWMNC93NQ17NI20TOD6B9CDNX",1474726856720,3,1728,226,19,"Most","right","English",NA,5,4,439100
"54","A1FYTTGF0QACU9:3F6KKYWMNC93NQ17NI20TOD6B9CDNX",1474726858094,4,1373,432,226,"Most","right","English",NA,5,4,439100
"55","A1FYTTGF0QACU9:3F6KKYWMNC93NQ17NI20TOD6B9CDNX",1474726859740,5,1645,432,18,"Most","right","English",NA,5,4,439100
"56","A1FYTTGF0QACU9:3F6KKYWMNC93NQ17NI20TOD6B9CDNX",1474726861432,6,1691,432,185,"Most","left","English",NA,5,4,439100
"57","A1FYTTGF0QACU9:3F6KKYWMNC93NQ17NI20TOD6B9CDNX",1474726863115,7,1682,432,9,"Most","right","English",NA,5,4,439100
"58","A1FYTTGF0QACU9:3F6KKYWMNC93NQ17NI20TOD6B9CDNX",1474726864619,8,1503,432,3,"Most","left","English",NA,5,4,439100
"59","A1FYTTGF0QACU9:3F6KKYWMNC93NQ17NI20TOD6B9CDNX",1474726867095,9,2475,432,413,"Most","left","English",NA,5,4,439100
"60","A1FYTTGF0QACU9:3F6KKYWMNC93NQ17NI20TOD6B9CDNX",1474726868642,10,1546,432,19,"Most","right","English",NA,5,4,439100
"61","A1FYTTGF0QACU9:3F6KKYWMNC93NQ17NI20TOD6B9CDNX",1474726870146,11,1502,432,48,"Most","right","English",NA,5,4,439100
"62","A1FYTTGF0QACU9:3F6KKYWMNC93NQ17NI20TOD6B9CDNX",1474726872230,12,2082,432,430,"Most","right","English",NA,5,4,439100
"63","A1FYTTGF0QACU9:3F6KKYWMNC93NQ17NI20TOD6B9CDNX",1474726879208,13,6976,432,431,"Most","right","English",NA,5,4,439100
"64","A1FYTTGF0QACU9:3F6KKYWMNC93NQ17NI20TOD6B9CDNX",1474726881700,14,2491,432,417,"Most","left","English",NA,5,4,439100
"65","A1FYTTGF0QACU9:3F6KKYWMNC93NQ17NI20TOD6B9CDNX",1474726883290,15,1589,432,5,"Most","left","English",NA,5,4,439100
"66","A1FYTTGF0QACU9:3F6KKYWMNC93NQ17NI20TOD6B9CDNX",1474726885243,16,1949,432,412,"Most","right","English",NA,5,4,439100
"67","A1FYTTGF0QACU9:3F6KKYWMNC93NQ17NI20TOD6B9CDNX",1474726888473,17,3229,432,425,"Most","left","English",NA,5,4,439100
"68","A1FYTTGF0QACU9:3F6KKYWMNC93NQ17NI20TOD6B9CDNX",1474726889999,18,1525,432,36,"Most","left","English",NA,5,4,439100
"69","A1FYTTGF0QACU9:3F6KKYWMNC93NQ17NI20TOD6B9CDNX",1474726891415,19,1415,432,14,"Most","left","English",NA,5,4,439100
"70","A1FYTTGF0QACU9:3F6KKYWMNC93NQ17NI20TOD6B9CDNX",1474726892842,20,1426,432,17,"Most","right","English",NA,5,4,439100
"71","A1FYTTGF0QACU9:3F6KKYWMNC93NQ17NI20TOD6B9CDNX",1474726894262,21,1419,432,169,"Most","left","English",NA,5,4,439100
"72","A1FYTTGF0QACU9:3F6KKYWMNC93NQ17NI20TOD6B9CDNX",1474726895603,22,1340,432,58,"Most","left","English",NA,5,4,439100
"73","A1FYTTGF0QACU9:3F6KKYWMNC93NQ17NI20TOD6B9CDNX",1474726897183,23,1579,432,222,"Most","left","English",NA,5,4,439100
"74","A1FYTTGF0QACU9:3F6KKYWMNC93NQ17NI20TOD6B9CDNX",1474726899104,24,1919,432,379,"Most","right","English",NA,5,4,439100
"75","A1FYTTGF0QACU9:3F6KKYWMNC93NQ17NI20TOD6B9CDNX",1474726900782,25,1676,432,415,"Most","right","English",NA,5,4,439100
"76","A1FYTTGF0QACU9:3F6KKYWMNC93NQ17NI20TOD6B9CDNX",1474726902353,26,1570,432,6,"Most","left","English",NA,5,4,439100
"77","A1FYTTGF0QACU9:3F6KKYWMNC93NQ17NI20TOD6B9CDNX",1474726904084,27,1730,432,422,"Most","left","English",NA,5,4,439100
"78","A1FYTTGF0QACU9:3F6KKYWMNC93NQ17NI20TOD6B9CDNX",1474726906420,28,2335,432,426,"Most","right","English",NA,5,4,439100
"79","A1FYTTGF0QACU9:3F6KKYWMNC93NQ17NI20TOD6B9CDNX",1474726907985,29,1564,432,15,"Most","left","English",NA,5,4,439100
"80","A1FYTTGF0QACU9:3F6KKYWMNC93NQ17NI20TOD6B9CDNX",1474726910036,30,2050,432,406,"Most","left","English",NA,5,4,439100
"81","A1FYTTGF0QACU9:3F6KKYWMNC93NQ17NI20TOD6B9CDNX",1474726911445,31,1408,432,12,"Most","right","English",NA,5,4,439100
"82","A1FYTTGF0QACU9:3F6KKYWMNC93NQ17NI20TOD6B9CDNX",1474726913612,32,2165,432,427,"Most","left","English",NA,5,4,439100
"83","A1FYTTGF0QACU9:3F6KKYWMNC93NQ17NI20TOD6B9CDNX",1474726915077,33,1463,432,113,"Most","left","English",NA,5,4,439100
"84","A1FYTTGF0QACU9:3F6KKYWMNC93NQ17NI20TOD6B9CDNX",1474726917035,34,1956,432,427,"Most","right","English",NA,5,4,439100
"85","A1FYTTGF0QACU9:3F6KKYWMNC93NQ17NI20TOD6B9CDNX",1474726919549,35,2513,432,423,"Most","left","English",NA,5,4,439100
"86","A1FYTTGF0QACU9:3F6KKYWMNC93NQ17NI20TOD6B9CDNX",1474726921037,36,1486,432,31,"Most","right","English",NA,5,4,439100
"87","A1FYTTGF0QACU9:3F6KKYWMNC93NQ17NI20TOD6B9CDNX",1474726922524,37,1486,432,169,"Most","right","English",NA,5,4,439100
"88","A1FYTTGF0QACU9:3F6KKYWMNC93NQ17NI20TOD6B9CDNX",1474726923968,38,1443,432,10,"Most","left","English",NA,5,4,439100
"89","A1FYTTGF0QACU9:3F6KKYWMNC93NQ17NI20TOD6B9CDNX",1474726925404,39,1435,432,16,"Most","right","English",NA,5,4,439100
"90","A1FYTTGF0QACU9:3F6KKYWMNC93NQ17NI20TOD6B9CDNX",1474726927019,40,1614,432,259,"Most","right","English",NA,5,4,439100
"91","A1FYTTGF0QACU9:3F6KKYWMNC93NQ17NI20TOD6B9CDNX",1474726928468,41,1448,432,9,"Most","right","English",NA,5,4,439100
"92","A1FYTTGF0QACU9:3F6KKYWMNC93NQ17NI20TOD6B9CDNX",1474726930289,42,1819,432,417,"Most","left","English",NA,5,4,439100
"93","A1FYTTGF0QACU9:3F6KKYWMNC93NQ17NI20TOD6B9CDNX",1474726932046,43,1756,432,417,"Most","right","English",NA,5,4,439100
"94","A1FYTTGF0QACU9:3F6KKYWMNC93NQ17NI20TOD6B9CDNX",1474726933704,44,1657,432,413,"Most","right","English",NA,5,4,439100
"95","A1FYTTGF0QACU9:3F6KKYWMNC93NQ17NI20TOD6B9CDNX",1474726935404,45,1699,432,417,"Most","left","English",NA,5,4,439100
"96","A1FYTTGF0QACU9:3F6KKYWMNC93NQ17NI20TOD6B9CDNX",1474726937176,46,1771,432,412,"Most","left","English",NA,5,4,439100
"97","A1FYTTGF0QACU9:3F6KKYWMNC93NQ17NI20TOD6B9CDNX",1474726938612,47,1435,432,228,"Most","right","English",NA,5,4,439100
"98","A1FYTTGF0QACU9:3F6KKYWMNC93NQ17NI20TOD6B9CDNX",1474726943589,48,4975,432,432,"Most","right","English",NA,5,4,439100
"99","A1FYTTGF0QACU9:3F6KKYWMNC93NQ17NI20TOD6B9CDNX",1474726945192,49,1602,432,3,"Most","right","English",NA,5,4,439100
"100","A1FYTTGF0QACU9:3F6KKYWMNC93NQ17NI20TOD6B9CDNX",1474726947813,50,2620,432,109,"Most","right","English",NA,5,4,439100
"101","A1FYTTGF0QACU9:3F6KKYWMNC93NQ17NI20TOD6B9CDNX",1474726955077,1,4719,168,111,"All","right","English",NA,5,4,439100
"102","A1FYTTGF0QACU9:3F6KKYWMNC93NQ17NI20TOD6B9CDNX",1474726958169,2,3091,182,168,"All","left","English",NA,5,4,439100
"103","A1FYTTGF0QACU9:3F6KKYWMNC93NQ17NI20TOD6B9CDNX",1474726960246,3,2076,182,192,"All","right","English",NA,5,4,439100
"104","A1FYTTGF0QACU9:3F6KKYWMNC93NQ17NI20TOD6B9CDNX",1474726962261,4,2014,181,182,"All","right","English",NA,5,4,439100
"105","A1FYTTGF0QACU9:3F6KKYWMNC93NQ17NI20TOD6B9CDNX",1474726964639,5,2377,200,181,"All","right","English",NA,5,4,439100
"106","A1FYTTGF0QACU9:3F6KKYWMNC93NQ17NI20TOD6B9CDNX",1474726966148,6,1508,187,200,"All","right","English",NA,5,4,439100
"107","A1FYTTGF0QACU9:3F6KKYWMNC93NQ17NI20TOD6B9CDNX",1474726967403,7,1254,426,187,"All","left","English",NA,5,4,439100
"108","A1FYTTGF0QACU9:3F6KKYWMNC93NQ17NI20TOD6B9CDNX",1474726970514,8,3108,420,426,"All","right","English",NA,5,4,439100
"109","A1FYTTGF0QACU9:3F6KKYWMNC93NQ17NI20TOD6B9CDNX",1474726972007,9,1492,424,420,"All","left","English",NA,5,4,439100
"110","A1FYTTGF0QACU9:3F6KKYWMNC93NQ17NI20TOD6B9CDNX",1474726973414,10,1406,424,0,"All","right","English",NA,5,4,439100
"111","A1FYTTGF0QACU9:3F6KKYWMNC93NQ17NI20TOD6B9CDNX",1474726975033,11,1618,424,256,"All","right","English",NA,5,4,439100
"112","A1FYTTGF0QACU9:3F6KKYWMNC93NQ17NI20TOD6B9CDNX",1474726976312,12,1278,424,181,"All","right","English",NA,5,4,439100
"113","A1FYTTGF0QACU9:3F6KKYWMNC93NQ17NI20TOD6B9CDNX",1474726978278,13,1965,424,419,"All","left","English",NA,5,4,439100
"114","A1FYTTGF0QACU9:3F6KKYWMNC93NQ17NI20TOD6B9CDNX",1474726979710,14,1431,424,423,"All","left","English",NA,5,4,439100
"115","A1FYTTGF0QACU9:3F6KKYWMNC93NQ17NI20TOD6B9CDNX",1474726981736,15,2025,424,365,"All","right","English",NA,5,4,439100
"116","A1FYTTGF0QACU9:3F6KKYWMNC93NQ17NI20TOD6B9CDNX",1474726984022,16,2285,424,407,"All","left","English",NA,5,4,439100
"117","A1FYTTGF0QACU9:3F6KKYWMNC93NQ17NI20TOD6B9CDNX",1474726985588,17,1565,424,137,"All","right","English",NA,5,4,439100
"118","A1FYTTGF0QACU9:3F6KKYWMNC93NQ17NI20TOD6B9CDNX",1474726987037,18,1448,424,308,"All","left","English",NA,5,4,439100
"119","A1FYTTGF0QACU9:3F6KKYWMNC93NQ17NI20TOD6B9CDNX",1474726988374,19,1330,424,12,"All","left","English",NA,5,4,439100
"120","A1FYTTGF0QACU9:3F6KKYWMNC93NQ17NI20TOD6B9CDNX",1474726989489,20,1112,424,91,"All","left","English",NA,5,4,439100
"121","A1FYTTGF0QACU9:3F6KKYWMNC93NQ17NI20TOD6B9CDNX",1474726991015,21,1525,424,424,"All","right","English",NA,5,4,439100
"122","A1FYTTGF0QACU9:3F6KKYWMNC93NQ17NI20TOD6B9CDNX",1474726992476,22,1460,424,261,"All","left","English",NA,5,4,439100
"123","A1FYTTGF0QACU9:3F6KKYWMNC93NQ17NI20TOD6B9CDNX",1474726993655,23,1177,424,424,"All","left","English",NA,5,4,439100
"124","A1FYTTGF0QACU9:3F6KKYWMNC93NQ17NI20TOD6B9CDNX",1474726995051,24,1394,424,193,"All","right","English",NA,5,4,439100
"125","A1FYTTGF0QACU9:3F6KKYWMNC93NQ17NI20TOD6B9CDNX",1474726996115,25,1063,424,8,"All","right","English",NA,5,4,439100
"126","A1FYTTGF0QACU9:3F6KKYWMNC93NQ17NI20TOD6B9CDNX",1474726998016,26,1900,424,413,"All","right","English",NA,5,4,439100
"127","A1FYTTGF0QACU9:3F6KKYWMNC93NQ17NI20TOD6B9CDNX",1474726999461,27,1444,424,6,"All","left","English",NA,5,4,439100
"128","A1FYTTGF0QACU9:3F6KKYWMNC93NQ17NI20TOD6B9CDNX",1474727000757,28,1295,430,424,"All","left","English",NA,5,4,439100
"129","A1FYTTGF0QACU9:3F6KKYWMNC93NQ17NI20TOD6B9CDNX",1474727002735,29,1977,430,390,"All","left","English",NA,5,4,439100
"130","A1FYTTGF0QACU9:3F6KKYWMNC93NQ17NI20TOD6B9CDNX",1474727004148,30,1412,412,430,"All","left","English",NA,5,4,439100
"131","A1FYTTGF0QACU9:3F6KKYWMNC93NQ17NI20TOD6B9CDNX",1474727005439,31,1289,412,359,"All","left","English",NA,5,4,439100
"132","A1FYTTGF0QACU9:3F6KKYWMNC93NQ17NI20TOD6B9CDNX",1474727007136,32,1696,412,59,"All","right","English",NA,5,4,439100
"133","A1FYTTGF0QACU9:3F6KKYWMNC93NQ17NI20TOD6B9CDNX",1474727009172,33,2035,410,412,"All","left","English",NA,5,4,439100
"134","A1FYTTGF0QACU9:3F6KKYWMNC93NQ17NI20TOD6B9CDNX",1474727010552,34,1379,410,50,"All","right","English",NA,5,4,439100
"135","A1FYTTGF0QACU9:3F6KKYWMNC93NQ17NI20TOD6B9CDNX",1474727012107,35,1554,398,410,"All","left","English",NA,5,4,439100
"136","A1FYTTGF0QACU9:3F6KKYWMNC93NQ17NI20TOD6B9CDNX",1474727013557,36,1449,398,384,"All","left","English",NA,5,4,439100
"137","A1FYTTGF0QACU9:3F6KKYWMNC93NQ17NI20TOD6B9CDNX",1474727014943,37,1385,404,398,"All","right","English",NA,5,4,439100
"138","A1FYTTGF0QACU9:3F6KKYWMNC93NQ17NI20TOD6B9CDNX",1474727016195,38,1251,424,404,"All","right","English",NA,5,4,439100
"139","A1FYTTGF0QACU9:3F6KKYWMNC93NQ17NI20TOD6B9CDNX",1474727017638,39,1442,424,409,"All","right","English",NA,5,4,439100
"140","A1FYTTGF0QACU9:3F6KKYWMNC93NQ17NI20TOD6B9CDNX",1474727019485,40,1846,424,352,"All","left","English",NA,5,4,439100
"141","A1FYTTGF0QACU9:3F6KKYWMNC93NQ17NI20TOD6B9CDNX",1474727021371,41,1884,424,420,"All","left","English",NA,5,4,439100
"142","A1FYTTGF0QACU9:3F6KKYWMNC93NQ17NI20TOD6B9CDNX",1474727022525,42,1153,424,202,"All","left","English",NA,5,4,439100
"143","A1FYTTGF0QACU9:3F6KKYWMNC93NQ17NI20TOD6B9CDNX",1474727023679,43,1153,424,3,"All","right","English",NA,5,4,439100
"144","A1FYTTGF0QACU9:3F6KKYWMNC93NQ17NI20TOD6B9CDNX",1474727025897,44,2217,408,424,"All","left","English",NA,5,4,439100
"145","A1FYTTGF0QACU9:3F6KKYWMNC93NQ17NI20TOD6B9CDNX",1474727027310,45,1412,408,294,"All","right","English",NA,5,4,439100
"146","A1FYTTGF0QACU9:3F6KKYWMNC93NQ17NI20TOD6B9CDNX",1474727028965,46,1654,408,416,"All","right","English",NA,5,4,439100
"147","A1FYTTGF0QACU9:3F6KKYWMNC93NQ17NI20TOD6B9CDNX",1474727030131,47,1165,408,111,"All","right","English",NA,5,4,439100
"148","A1FYTTGF0QACU9:3F6KKYWMNC93NQ17NI20TOD6B9CDNX",1474727033753,48,3621,408,410,"All","left","English",NA,5,4,439100
"149","A1FYTTGF0QACU9:3F6KKYWMNC93NQ17NI20TOD6B9CDNX",1474727035150,49,1396,405,408,"All","left","English",NA,5,4,439100
"150","A1FYTTGF0QACU9:3F6KKYWMNC93NQ17NI20TOD6B9CDNX",1474727036818,50,1667,411,405,"All","left","English",NA,5,4,439100
"151","A1FYTTGF0QACU9:3F6KKYWMNC93NQ17NI20TOD6B9CDNX",1474727042397,1,3558,74,361,"Hardly Any","left","English",NA,5,4,439100
"152","A1FYTTGF0QACU9:3F6KKYWMNC93NQ17NI20TOD6B9CDNX",1474727044141,2,1743,74,82,"Hardly Any","left","English",NA,5,4,439100
"153","A1FYTTGF0QACU9:3F6KKYWMNC93NQ17NI20TOD6B9CDNX",1474727046644,3,2502,55,74,"Hardly Any","right","English",NA,5,4,439100
"154","A1FYTTGF0QACU9:3F6KKYWMNC93NQ17NI20TOD6B9CDNX",1474727047977,4,1331,55,323,"Hardly Any","right","English",NA,5,4,439100
"155","A1FYTTGF0QACU9:3F6KKYWMNC93NQ17NI20TOD6B9CDNX",1474727050687,5,2709,40,55,"Hardly Any","left","English",NA,5,4,439100
"156","A1FYTTGF0QACU9:3F6KKYWMNC93NQ17NI20TOD6B9CDNX",1474727052667,6,1979,4,40,"Hardly Any","right","English",NA,5,4,439100
"157","A1FYTTGF0QACU9:3F6KKYWMNC93NQ17NI20TOD6B9CDNX",1474727054395,7,1727,4,98,"Hardly Any","left","English",NA,5,4,439100
"158","A1FYTTGF0QACU9:3F6KKYWMNC93NQ17NI20TOD6B9CDNX",1474727055854,8,1458,4,20,"Hardly Any","right","English",NA,5,4,439100
"159","A1FYTTGF0QACU9:3F6KKYWMNC93NQ17NI20TOD6B9CDNX",1474727057630,9,1774,4,112,"Hardly Any","left","English",NA,5,4,439100
"160","A1FYTTGF0QACU9:3F6KKYWMNC93NQ17NI20TOD6B9CDNX",1474727059169,10,1538,4,415,"Hardly Any","right","English",NA,5,4,439100
"161","A1FYTTGF0QACU9:3F6KKYWMNC93NQ17NI20TOD6B9CDNX",1474727061350,11,2180,4,84,"Hardly Any","left","English",NA,5,4,439100
"162","A1FYTTGF0QACU9:3F6KKYWMNC93NQ17NI20TOD6B9CDNX",1474727062748,12,1397,4,190,"Hardly Any","left","English",NA,5,4,439100
"163","A1FYTTGF0QACU9:3F6KKYWMNC93NQ17NI20TOD6B9CDNX",1474727064324,13,1575,4,23,"Hardly Any","right","English",NA,5,4,439100
"164","A1FYTTGF0QACU9:3F6KKYWMNC93NQ17NI20TOD6B9CDNX",1474727065428,14,1103,4,422,"Hardly Any","right","English",NA,5,4,439100
"165","A1FYTTGF0QACU9:3F6KKYWMNC93NQ17NI20TOD6B9CDNX",1474727066646,15,1217,4,421,"Hardly Any","right","English",NA,5,4,439100
"166","A1FYTTGF0QACU9:3F6KKYWMNC93NQ17NI20TOD6B9CDNX",1474727068150,16,1504,4,356,"Hardly Any","left","English",NA,5,4,439100
"167","A1FYTTGF0QACU9:3F6KKYWMNC93NQ17NI20TOD6B9CDNX",1474727069111,17,960,4,242,"Hardly Any","left","English",NA,5,4,439100
"168","A1FYTTGF0QACU9:3F6KKYWMNC93NQ17NI20TOD6B9CDNX",1474727070599,18,1488,4,423,"Hardly Any","right","English",NA,5,4,439100
"169","A1FYTTGF0QACU9:3F6KKYWMNC93NQ17NI20TOD6B9CDNX",1474727072048,19,1448,4,101,"Hardly Any","left","English",NA,5,4,439100
"170","A1FYTTGF0QACU9:3F6KKYWMNC93NQ17NI20TOD6B9CDNX",1474727073244,20,1195,4,432,"Hardly Any","left","English",NA,5,4,439100
"171","A1FYTTGF0QACU9:3F6KKYWMNC93NQ17NI20TOD6B9CDNX",1474727075116,21,1871,0,4,"Hardly Any","right","English",NA,5,4,439100
"172","A1FYTTGF0QACU9:3F6KKYWMNC93NQ17NI20TOD6B9CDNX",1474727076592,22,1475,0,418,"Hardly Any","left","English",NA,5,4,439100
"173","A1FYTTGF0QACU9:3F6KKYWMNC93NQ17NI20TOD6B9CDNX",1474727077630,23,1037,0,322,"Hardly Any","left","English",NA,5,4,439100
"174","A1FYTTGF0QACU9:3F6KKYWMNC93NQ17NI20TOD6B9CDNX",1474727079762,24,2132,0,8,"Hardly Any","left","English",NA,5,4,439100
"175","A1FYTTGF0QACU9:3F6KKYWMNC93NQ17NI20TOD6B9CDNX",1474727080799,25,1036,0,180,"Hardly Any","left","English",NA,5,4,439100
"176","A1FYTTGF0QACU9:3F6KKYWMNC93NQ17NI20TOD6B9CDNX",1474727081826,26,1026,0,425,"Hardly Any","left","English",NA,5,4,439100
"177","A1FYTTGF0QACU9:3F6KKYWMNC93NQ17NI20TOD6B9CDNX",1474727083237,27,1410,0,416,"Hardly Any","right","English",NA,5,4,439100
"178","A1FYTTGF0QACU9:3F6KKYWMNC93NQ17NI20TOD6B9CDNX",1474727084238,28,999,0,47,"Hardly Any","right","English",NA,5,4,439100
"179","A1FYTTGF0QACU9:3F6KKYWMNC93NQ17NI20TOD6B9CDNX",1474727085380,29,1140,0,432,"Hardly Any","left","English",NA,5,4,439100
"180","A1FYTTGF0QACU9:3F6KKYWMNC93NQ17NI20TOD6B9CDNX",1474727086407,30,1026,0,101,"Hardly Any","left","English",NA,5,4,439100
"181","A1FYTTGF0QACU9:3F6KKYWMNC93NQ17NI20TOD6B9CDNX",1474727088263,31,1855,0,290,"Hardly Any","right","English",NA,5,4,439100
"182","A1FYTTGF0QACU9:3F6KKYWMNC93NQ17NI20TOD6B9CDNX",1474727090056,32,1792,0,2,"Hardly Any","left","English",NA,5,4,439100
"183","A1FYTTGF0QACU9:3F6KKYWMNC93NQ17NI20TOD6B9CDNX",1474727091067,33,1010,0,431,"Hardly Any","left","English",NA,5,4,439100
"184","A1FYTTGF0QACU9:3F6KKYWMNC93NQ17NI20TOD6B9CDNX",1474727092457,34,1389,0,416,"Hardly Any","right","English",NA,5,4,439100
"185","A1FYTTGF0QACU9:3F6KKYWMNC93NQ17NI20TOD6B9CDNX",1474727094406,35,1948,0,30,"Hardly Any","right","English",NA,5,4,439100
"186","A1FYTTGF0QACU9:3F6KKYWMNC93NQ17NI20TOD6B9CDNX",1474727096019,36,1612,0,427,"Hardly Any","left","English",NA,5,4,439100
"187","A1FYTTGF0QACU9:3F6KKYWMNC93NQ17NI20TOD6B9CDNX",1474727097369,37,1349,0,161,"Hardly Any","left","English",NA,5,4,439100
"188","A1FYTTGF0QACU9:3F6KKYWMNC93NQ17NI20TOD6B9CDNX",1474727099307,38,1937,0,8,"Hardly Any","right","English",NA,5,4,439100
"189","A1FYTTGF0QACU9:3F6KKYWMNC93NQ17NI20TOD6B9CDNX",1474727100693,39,1385,0,6,"Hardly Any","left","English",NA,5,4,439100
"190","A1FYTTGF0QACU9:3F6KKYWMNC93NQ17NI20TOD6B9CDNX",1474727102029,40,1335,0,418,"Hardly Any","right","English",NA,5,4,439100
"191","A1FYTTGF0QACU9:3F6KKYWMNC93NQ17NI20TOD6B9CDNX",1474727103707,41,1677,0,19,"Hardly Any","right","English",NA,5,4,439100
"192","A1FYTTGF0QACU9:3F6KKYWMNC93NQ17NI20TOD6B9CDNX",1474727105309,42,1601,0,23,"Hardly Any","right","English",NA,5,4,439100
"193","A1FYTTGF0QACU9:3F6KKYWMNC93NQ17NI20TOD6B9CDNX",1474727106826,43,1516,0,225,"Hardly Any","left","English",NA,5,4,439100
"194","A1FYTTGF0QACU9:3F6KKYWMNC93NQ17NI20TOD6B9CDNX",1474727108354,44,1527,0,38,"Hardly Any","right","English",NA,5,4,439100
"195","A1FYTTGF0QACU9:3F6KKYWMNC93NQ17NI20TOD6B9CDNX",1474727109649,45,1293,0,0,"Hardly Any","right","English",NA,5,4,439100
"196","A1FYTTGF0QACU9:3F6KKYWMNC93NQ17NI20TOD6B9CDNX",1474727110777,46,1127,0,287,"Hardly Any","right","English",NA,5,4,439100
"197","A1FYTTGF0QACU9:3F6KKYWMNC93NQ17NI20TOD6B9CDNX",1474727112402,47,1623,0,14,"Hardly Any","left","English",NA,5,4,439100
"198","A1FYTTGF0QACU9:3F6KKYWMNC93NQ17NI20TOD6B9CDNX",1474727113829,48,1426,0,221,"Hardly Any","right","English",NA,5,4,439100
"199","A1FYTTGF0QACU9:3F6KKYWMNC93NQ17NI20TOD6B9CDNX",1474727115331,49,1501,0,51,"Hardly Any","left","English",NA,5,4,439100
"200","A1FYTTGF0QACU9:3F6KKYWMNC93NQ17NI20TOD6B9CDNX",1474727116461,50,1129,0,429,"Hardly Any","left","English",NA,5,4,439100
"201","A23OR0D1FCUVMM:3Q5ZZ9ZEVPNNG6ZA2AVYDFZJ9YE58U",1474726679896,1,10398,119,425,"Half","left","English","No",6,7,508138
"202","A23OR0D1FCUVMM:3Q5ZZ9ZEVPNNG6ZA2AVYDFZJ9YE58U",1474726689703,2,9806,119,110,"Half","left","English","No",6,7,508138
"203","A23OR0D1FCUVMM:3Q5ZZ9ZEVPNNG6ZA2AVYDFZJ9YE58U",1474726692761,3,3056,119,431,"Half","left","English","No",6,7,508138
"204","A23OR0D1FCUVMM:3Q5ZZ9ZEVPNNG6ZA2AVYDFZJ9YE58U",1474726695817,4,3056,99,119,"Half","right","English","No",6,7,508138
"205","A23OR0D1FCUVMM:3Q5ZZ9ZEVPNNG6ZA2AVYDFZJ9YE58U",1474726700526,5,4707,99,381,"Half","left","English","No",6,7,508138
"206","A23OR0D1FCUVMM:3Q5ZZ9ZEVPNNG6ZA2AVYDFZJ9YE58U",1474726707769,6,7242,195,99,"Half","right","English","No",6,7,508138
"207","A23OR0D1FCUVMM:3Q5ZZ9ZEVPNNG6ZA2AVYDFZJ9YE58U",1474726712670,7,4900,205,195,"Half","left","English","No",6,7,508138
"208","A23OR0D1FCUVMM:3Q5ZZ9ZEVPNNG6ZA2AVYDFZJ9YE58U",1474726716300,8,3629,205,196,"Half","right","English","No",6,7,508138
"209","A23OR0D1FCUVMM:3Q5ZZ9ZEVPNNG6ZA2AVYDFZJ9YE58U",1474726719343,9,3041,205,38,"Half","left","English","No",6,7,508138
"210","A23OR0D1FCUVMM:3Q5ZZ9ZEVPNNG6ZA2AVYDFZJ9YE58U",1474726721802,10,2458,205,196,"Half","right","English","No",6,7,508138
"211","A23OR0D1FCUVMM:3Q5ZZ9ZEVPNNG6ZA2AVYDFZJ9YE58U",1474726725076,11,3273,205,58,"Half","left","English","No",6,7,508138
"212","A23OR0D1FCUVMM:3Q5ZZ9ZEVPNNG6ZA2AVYDFZJ9YE58U",1474726727493,12,2415,115,205,"Half","left","English","No",6,7,508138
"213","A23OR0D1FCUVMM:3Q5ZZ9ZEVPNNG6ZA2AVYDFZJ9YE58U",1474726730508,13,3015,109,115,"Half","left","English","No",6,7,508138
"214","A23OR0D1FCUVMM:3Q5ZZ9ZEVPNNG6ZA2AVYDFZJ9YE58U",1474726734057,14,3547,109,109,"Half","right","English","No",6,7,508138
"215","A23OR0D1FCUVMM:3Q5ZZ9ZEVPNNG6ZA2AVYDFZJ9YE58U",1474726736792,15,2733,109,111,"Half","right","English","No",6,7,508138
"216","A23OR0D1FCUVMM:3Q5ZZ9ZEVPNNG6ZA2AVYDFZJ9YE58U",1474726739012,16,2219,109,96,"Half","left","English","No",6,7,508138
"217","A23OR0D1FCUVMM:3Q5ZZ9ZEVPNNG6ZA2AVYDFZJ9YE58U",1474726742835,17,3823,109,125,"Half","right","English","No",6,7,508138
"218","A23OR0D1FCUVMM:3Q5ZZ9ZEVPNNG6ZA2AVYDFZJ9YE58U",1474726744918,18,2081,109,329,"Half","right","English","No",6,7,508138
"219","A23OR0D1FCUVMM:3Q5ZZ9ZEVPNNG6ZA2AVYDFZJ9YE58U",1474726747631,19,2711,201,109,"Half","right","English","No",6,7,508138
"220","A23OR0D1FCUVMM:3Q5ZZ9ZEVPNNG6ZA2AVYDFZJ9YE58U",1474726751640,20,4007,201,203,"Half","right","English","No",6,7,508138
"221","A23OR0D1FCUVMM:3Q5ZZ9ZEVPNNG6ZA2AVYDFZJ9YE58U",1474726755435,21,3795,185,201,"Half","right","English","No",6,7,508138
"222","A23OR0D1FCUVMM:3Q5ZZ9ZEVPNNG6ZA2AVYDFZJ9YE58U",1474726758496,22,3060,196,185,"Half","right","English","No",6,7,508138
"223","A23OR0D1FCUVMM:3Q5ZZ9ZEVPNNG6ZA2AVYDFZJ9YE58U",1474726760848,23,2349,196,309,"Half","right","English","No",6,7,508138
"224","A23OR0D1FCUVMM:3Q5ZZ9ZEVPNNG6ZA2AVYDFZJ9YE58U",1474726763606,24,2757,196,105,"Half","left","English","No",6,7,508138
"225","A23OR0D1FCUVMM:3Q5ZZ9ZEVPNNG6ZA2AVYDFZJ9YE58U",1474726768139,25,4532,188,196,"Half","left","English","No",6,7,508138
"226","A23OR0D1FCUVMM:3Q5ZZ9ZEVPNNG6ZA2AVYDFZJ9YE58U",1474726773617,26,5477,188,191,"Half","right","English","No",6,7,508138
"227","A23OR0D1FCUVMM:3Q5ZZ9ZEVPNNG6ZA2AVYDFZJ9YE58U",1474726775915,27,2297,188,196,"Half","left","English","No",6,7,508138
"228","A23OR0D1FCUVMM:3Q5ZZ9ZEVPNNG6ZA2AVYDFZJ9YE58U",1474726780143,28,4228,188,230,"Half","left","English","No",6,7,508138
"229","A23OR0D1FCUVMM:3Q5ZZ9ZEVPNNG6ZA2AVYDFZJ9YE58U",1474726784475,29,4331,188,205,"Half","right","English","No",6,7,508138
"230","A23OR0D1FCUVMM:3Q5ZZ9ZEVPNNG6ZA2AVYDFZJ9YE58U",1474726787119,30,2643,195,188,"Half","left","English","No",6,7,508138
"231","A23OR0D1FCUVMM:3Q5ZZ9ZEVPNNG6ZA2AVYDFZJ9YE58U",1474726790361,31,3242,195,102,"Half","left","English","No",6,7,508138
"232","A23OR0D1FCUVMM:3Q5ZZ9ZEVPNNG6ZA2AVYDFZJ9YE58U",1474726793346,32,2983,195,209,"Half","left","English","No",6,7,508138
"233","A23OR0D1FCUVMM:3Q5ZZ9ZEVPNNG6ZA2AVYDFZJ9YE58U",1474726796275,33,2928,206,195,"Half","left","English","No",6,7,508138
"234","A23OR0D1FCUVMM:3Q5ZZ9ZEVPNNG6ZA2AVYDFZJ9YE58U",1474726800352,34,4076,206,231,"Half","left","English","No",6,7,508138
"235","A23OR0D1FCUVMM:3Q5ZZ9ZEVPNNG6ZA2AVYDFZJ9YE58U",1474726803393,35,3040,223,206,"Half","right","English","No",6,7,508138
"236","A23OR0D1FCUVMM:3Q5ZZ9ZEVPNNG6ZA2AVYDFZJ9YE58U",1474726807316,36,3922,223,216,"Half","right","English","No",6,7,508138
"237","A23OR0D1FCUVMM:3Q5ZZ9ZEVPNNG6ZA2AVYDFZJ9YE58U",1474726810604,37,3287,223,319,"Half","left","English","No",6,7,508138
"238","A23OR0D1FCUVMM:3Q5ZZ9ZEVPNNG6ZA2AVYDFZJ9YE58U",1474726813342,38,2737,223,391,"Half","right","English","No",6,7,508138
"239","A23OR0D1FCUVMM:3Q5ZZ9ZEVPNNG6ZA2AVYDFZJ9YE58U",1474726817674,39,4331,223,135,"Half","left","English","No",6,7,508138
"240","A23OR0D1FCUVMM:3Q5ZZ9ZEVPNNG6ZA2AVYDFZJ9YE58U",1474726819847,40,2172,215,223,"Half","right","English","No",6,7,508138
"241","A23OR0D1FCUVMM:3Q5ZZ9ZEVPNNG6ZA2AVYDFZJ9YE58U",1474726822549,41,2702,198,215,"Half","right","English","No",6,7,508138
"242","A23OR0D1FCUVMM:3Q5ZZ9ZEVPNNG6ZA2AVYDFZJ9YE58U",1474726826674,42,4125,207,198,"Half","right","English","No",6,7,508138
"243","A23OR0D1FCUVMM:3Q5ZZ9ZEVPNNG6ZA2AVYDFZJ9YE58U",1474726828817,43,2143,207,62,"Half","right","English","No",6,7,508138
"244","A23OR0D1FCUVMM:3Q5ZZ9ZEVPNNG6ZA2AVYDFZJ9YE58U",1474726830790,44,1972,207,419,"Half","left","English","No",6,7,508138
"245","A23OR0D1FCUVMM:3Q5ZZ9ZEVPNNG6ZA2AVYDFZJ9YE58U",1474726834151,45,3360,207,219,"Half","right","English","No",6,7,508138
"246","A23OR0D1FCUVMM:3Q5ZZ9ZEVPNNG6ZA2AVYDFZJ9YE58U",1474726837545,46,3393,207,237,"Half","left","English","No",6,7,508138
"247","A23OR0D1FCUVMM:3Q5ZZ9ZEVPNNG6ZA2AVYDFZJ9YE58U",1474726842016,47,4470,207,411,"Half","right","English","No",6,7,508138
"248","A23OR0D1FCUVMM:3Q5ZZ9ZEVPNNG6ZA2AVYDFZJ9YE58U",1474726844407,48,2390,207,201,"Half","right","English","No",6,7,508138
"249","A23OR0D1FCUVMM:3Q5ZZ9ZEVPNNG6ZA2AVYDFZJ9YE58U",1474726847115,49,2707,207,360,"Half","left","English","No",6,7,508138
"250","A23OR0D1FCUVMM:3Q5ZZ9ZEVPNNG6ZA2AVYDFZJ9YE58U",1474726849605,50,2489,207,104,"Half","left","English","No",6,7,508138
"251","A23OR0D1FCUVMM:3Q5ZZ9ZEVPNNG6ZA2AVYDFZJ9YE58U",1474726861096,1,7741,267,204,"Most","right","English","No",6,7,508138
"252","A23OR0D1FCUVMM:3Q5ZZ9ZEVPNNG6ZA2AVYDFZJ9YE58U",1474726862803,2,1706,356,267,"Most","right","English","No",6,7,508138
"253","A23OR0D1FCUVMM:3Q5ZZ9ZEVPNNG6ZA2AVYDFZJ9YE58U",1474726864299,3,1495,356,114,"Most","left","English","No",6,7,508138
"254","A23OR0D1FCUVMM:3Q5ZZ9ZEVPNNG6ZA2AVYDFZJ9YE58U",1474726865669,4,1369,356,166,"Most","left","English","No",6,7,508138
"255","A23OR0D1FCUVMM:3Q5ZZ9ZEVPNNG6ZA2AVYDFZJ9YE58U",1474726868374,5,2704,388,356,"Most","left","English","No",6,7,508138
"256","A23OR0D1FCUVMM:3Q5ZZ9ZEVPNNG6ZA2AVYDFZJ9YE58U",1474726870667,6,2292,388,380,"Most","left","English","No",6,7,508138
"257","A23OR0D1FCUVMM:3Q5ZZ9ZEVPNNG6ZA2AVYDFZJ9YE58U",1474726872890,7,2223,388,373,"Most","right","English","No",6,7,508138
"258","A23OR0D1FCUVMM:3Q5ZZ9ZEVPNNG6ZA2AVYDFZJ9YE58U",1474726874404,8,1513,388,309,"Most","left","English","No",6,7,508138
"259","A23OR0D1FCUVMM:3Q5ZZ9ZEVPNNG6ZA2AVYDFZJ9YE58U",1474726876672,9,2267,376,388,"Most","left","English","No",6,7,508138
"260","A23OR0D1FCUVMM:3Q5ZZ9ZEVPNNG6ZA2AVYDFZJ9YE58U",1474726878485,10,1812,376,365,"Most","left","English","No",6,7,508138
"261","A23OR0D1FCUVMM:3Q5ZZ9ZEVPNNG6ZA2AVYDFZJ9YE58U",1474726880772,11,2286,376,374,"Most","right","English","No",6,7,508138
"262","A23OR0D1FCUVMM:3Q5ZZ9ZEVPNNG6ZA2AVYDFZJ9YE58U",1474726882400,12,1626,376,83,"Most","right","English","No",6,7,508138
"263","A23OR0D1FCUVMM:3Q5ZZ9ZEVPNNG6ZA2AVYDFZJ9YE58U",1474726884416,13,2015,387,376,"Most","right","English","No",6,7,508138
"264","A23OR0D1FCUVMM:3Q5ZZ9ZEVPNNG6ZA2AVYDFZJ9YE58U",1474726886042,14,1624,387,387,"Most","left","English","No",6,7,508138
"265","A23OR0D1FCUVMM:3Q5ZZ9ZEVPNNG6ZA2AVYDFZJ9YE58U",1474726887962,15,1918,387,368,"Most","left","English","No",6,7,508138
"266","A23OR0D1FCUVMM:3Q5ZZ9ZEVPNNG6ZA2AVYDFZJ9YE58U",1474726890006,16,2037,387,385,"Most","right","English","No",6,7,508138
"267","A23OR0D1FCUVMM:3Q5ZZ9ZEVPNNG6ZA2AVYDFZJ9YE58U",1474726891898,17,1891,379,387,"Most","right","English","No",6,7,508138
"268","A23OR0D1FCUVMM:3Q5ZZ9ZEVPNNG6ZA2AVYDFZJ9YE58U",1474726893415,18,1516,379,362,"Most","left","English","No",6,7,508138
"269","A23OR0D1FCUVMM:3Q5ZZ9ZEVPNNG6ZA2AVYDFZJ9YE58U",1474726894770,19,1354,422,379,"Most","left","English","No",6,7,508138
"270","A23OR0D1FCUVMM:3Q5ZZ9ZEVPNNG6ZA2AVYDFZJ9YE58U",1474726897293,20,2521,420,422,"Most","left","English","No",6,7,508138
"271","A23OR0D1FCUVMM:3Q5ZZ9ZEVPNNG6ZA2AVYDFZJ9YE58U",1474726899287,21,1993,420,370,"Most","left","English","No",6,7,508138
"272","A23OR0D1FCUVMM:3Q5ZZ9ZEVPNNG6ZA2AVYDFZJ9YE58U",1474726901160,22,1872,420,8,"Most","right","English","No",6,7,508138
"273","A23OR0D1FCUVMM:3Q5ZZ9ZEVPNNG6ZA2AVYDFZJ9YE58U",1474726904696,23,3535,417,420,"Most","right","English","No",6,7,508138
"274","A23OR0D1FCUVMM:3Q5ZZ9ZEVPNNG6ZA2AVYDFZJ9YE58U",1474726906536,24,1839,429,417,"Most","left","English","No",6,7,508138
"275","A23OR0D1FCUVMM:3Q5ZZ9ZEVPNNG6ZA2AVYDFZJ9YE58U",1474726909291,25,2755,429,16,"Most","right","English","No",6,7,508138
"276","A23OR0D1FCUVMM:3Q5ZZ9ZEVPNNG6ZA2AVYDFZJ9YE58U",1474726911407,26,2115,429,423,"Most","left","English","No",6,7,508138
"277","A23OR0D1FCUVMM:3Q5ZZ9ZEVPNNG6ZA2AVYDFZJ9YE58U",1474726912980,27,1572,429,12,"Most","right","English","No",6,7,508138
"278","A23OR0D1FCUVMM:3Q5ZZ9ZEVPNNG6ZA2AVYDFZJ9YE58U",1474726914417,28,1437,429,8,"Most","left","English","No",6,7,508138
"279","A23OR0D1FCUVMM:3Q5ZZ9ZEVPNNG6ZA2AVYDFZJ9YE58U",1474726915915,29,1497,429,167,"Most","right","English","No",6,7,508138
"280","A23OR0D1FCUVMM:3Q5ZZ9ZEVPNNG6ZA2AVYDFZJ9YE58U",1474726917471,30,1555,429,17,"Most","left","English","No",6,7,508138
"281","A23OR0D1FCUVMM:3Q5ZZ9ZEVPNNG6ZA2AVYDFZJ9YE58U",1474726919070,31,1598,429,8,"Most","right","English","No",6,7,508138
"282","A23OR0D1FCUVMM:3Q5ZZ9ZEVPNNG6ZA2AVYDFZJ9YE58U",1474726921242,32,2170,429,427,"Most","left","English","No",6,7,508138
"283","A23OR0D1FCUVMM:3Q5ZZ9ZEVPNNG6ZA2AVYDFZJ9YE58U",1474726922649,33,1406,429,286,"Most","left","English","No",6,7,508138
"284","A23OR0D1FCUVMM:3Q5ZZ9ZEVPNNG6ZA2AVYDFZJ9YE58U",1474726925495,34,2844,429,426,"Most","right","English","No",6,7,508138
"285","A23OR0D1FCUVMM:3Q5ZZ9ZEVPNNG6ZA2AVYDFZJ9YE58U",1474726927607,35,2111,429,409,"Most","right","English","No",6,7,508138
"286","A23OR0D1FCUVMM:3Q5ZZ9ZEVPNNG6ZA2AVYDFZJ9YE58U",1474726928689,36,1081,429,16,"Most","right","English","No",6,7,508138
"287","A23OR0D1FCUVMM:3Q5ZZ9ZEVPNNG6ZA2AVYDFZJ9YE58U",1474726930150,37,1460,429,10,"Most","right","English","No",6,7,508138
"288","A23OR0D1FCUVMM:3Q5ZZ9ZEVPNNG6ZA2AVYDFZJ9YE58U",1474726931619,38,1468,429,194,"Most","right","English","No",6,7,508138
"289","A23OR0D1FCUVMM:3Q5ZZ9ZEVPNNG6ZA2AVYDFZJ9YE58U",1474726934924,39,3303,429,8,"Most","left","English","No",6,7,508138
"290","A23OR0D1FCUVMM:3Q5ZZ9ZEVPNNG6ZA2AVYDFZJ9YE58U",1474726937187,40,2262,429,422,"Most","left","English","No",6,7,508138
"291","A23OR0D1FCUVMM:3Q5ZZ9ZEVPNNG6ZA2AVYDFZJ9YE58U",1474726939139,41,1951,429,336,"Most","left","English","No",6,7,508138
"292","A23OR0D1FCUVMM:3Q5ZZ9ZEVPNNG6ZA2AVYDFZJ9YE58U",1474726945779,42,6639,431,429,"Most","right","English","No",6,7,508138
"293","A23OR0D1FCUVMM:3Q5ZZ9ZEVPNNG6ZA2AVYDFZJ9YE58U",1474726947306,43,1526,431,66,"Most","right","English","No",6,7,508138
"294","A23OR0D1FCUVMM:3Q5ZZ9ZEVPNNG6ZA2AVYDFZJ9YE58U",1474726949790,44,2484,431,426,"Most","left","English","No",6,7,508138
"295","A23OR0D1FCUVMM:3Q5ZZ9ZEVPNNG6ZA2AVYDFZJ9YE58U",1474726954889,45,5098,431,431,"Most","left","English","No",6,7,508138
"296","A23OR0D1FCUVMM:3Q5ZZ9ZEVPNNG6ZA2AVYDFZJ9YE58U",1474726957552,46,2662,431,331,"Most","left","English","No",6,7,508138
"297","A23OR0D1FCUVMM:3Q5ZZ9ZEVPNNG6ZA2AVYDFZJ9YE58U",1474726961653,47,4099,431,424,"Most","left","English","No",6,7,508138
"298","A23OR0D1FCUVMM:3Q5ZZ9ZEVPNNG6ZA2AVYDFZJ9YE58U",1474726963378,48,1724,431,14,"Most","right","English","No",6,7,508138
"299","A23OR0D1FCUVMM:3Q5ZZ9ZEVPNNG6ZA2AVYDFZJ9YE58U",1474726965167,49,1788,431,103,"Most","right","English","No",6,7,508138
"300","A23OR0D1FCUVMM:3Q5ZZ9ZEVPNNG6ZA2AVYDFZJ9YE58U",1474726966309,50,1141,431,2,"Most","right","English","No",6,7,508138
"301","A23OR0D1FCUVMM:3Q5ZZ9ZEVPNNG6ZA2AVYDFZJ9YE58U",1474726974033,1,5237,93,253,"Hardly Any","right","English","No",6,7,508138
"302","A23OR0D1FCUVMM:3Q5ZZ9ZEVPNNG6ZA2AVYDFZJ9YE58U",1474726975969,2,1935,93,362,"Hardly Any","left","English","No",6,7,508138
"303","A23OR0D1FCUVMM:3Q5ZZ9ZEVPNNG6ZA2AVYDFZJ9YE58U",1474726978841,3,2871,93,93,"Hardly Any","left","English","No",6,7,508138
"304","A23OR0D1FCUVMM:3Q5ZZ9ZEVPNNG6ZA2AVYDFZJ9YE58U",1474726985116,4,6274,93,91,"Hardly Any","left","English","No",6,7,508138
"305","A23OR0D1FCUVMM:3Q5ZZ9ZEVPNNG6ZA2AVYDFZJ9YE58U",1474726986916,5,1799,92,93,"Hardly Any","left","English","No",6,7,508138
"306","A23OR0D1FCUVMM:3Q5ZZ9ZEVPNNG6ZA2AVYDFZJ9YE58U",1474726988497,6,1580,74,92,"Hardly Any","left","English","No",6,7,508138
"307","A23OR0D1FCUVMM:3Q5ZZ9ZEVPNNG6ZA2AVYDFZJ9YE58U",1474726990106,7,1608,74,80,"Hardly Any","left","English","No",6,7,508138
"308","A23OR0D1FCUVMM:3Q5ZZ9ZEVPNNG6ZA2AVYDFZJ9YE58U",1474726993195,8,3089,74,83,"Hardly Any","left","English","No",6,7,508138
"309","A23OR0D1FCUVMM:3Q5ZZ9ZEVPNNG6ZA2AVYDFZJ9YE58U",1474726995206,9,2008,30,74,"Hardly Any","left","English","No",6,7,508138
"310","A23OR0D1FCUVMM:3Q5ZZ9ZEVPNNG6ZA2AVYDFZJ9YE58U",1474726997018,10,1811,30,26,"Hardly Any","right","English","No",6,7,508138
"311","A23OR0D1FCUVMM:3Q5ZZ9ZEVPNNG6ZA2AVYDFZJ9YE58U",1474727000272,11,3253,27,30,"Hardly Any","right","English","No",6,7,508138
"312","A23OR0D1FCUVMM:3Q5ZZ9ZEVPNNG6ZA2AVYDFZJ9YE58U",1474727002464,12,2191,11,27,"Hardly Any","left","English","No",6,7,508138
"313","A23OR0D1FCUVMM:3Q5ZZ9ZEVPNNG6ZA2AVYDFZJ9YE58U",1474727004092,13,1626,11,30,"Hardly Any","right","English","No",6,7,508138
"314","A23OR0D1FCUVMM:3Q5ZZ9ZEVPNNG6ZA2AVYDFZJ9YE58U",1474727005521,14,1428,11,293,"Hardly Any","left","English","No",6,7,508138
"315","A23OR0D1FCUVMM:3Q5ZZ9ZEVPNNG6ZA2AVYDFZJ9YE58U",1474727007125,15,1603,11,423,"Hardly Any","right","English","No",6,7,508138
"316","A23OR0D1FCUVMM:3Q5ZZ9ZEVPNNG6ZA2AVYDFZJ9YE58U",1474727008785,16,1659,11,20,"Hardly Any","left","English","No",6,7,508138
"317","A23OR0D1FCUVMM:3Q5ZZ9ZEVPNNG6ZA2AVYDFZJ9YE58U",1474727010038,17,1252,11,316,"Hardly Any","left","English","No",6,7,508138
"318","A23OR0D1FCUVMM:3Q5ZZ9ZEVPNNG6ZA2AVYDFZJ9YE58U",1474727012219,18,2180,11,241,"Hardly Any","right","English","No",6,7,508138
"319","A23OR0D1FCUVMM:3Q5ZZ9ZEVPNNG6ZA2AVYDFZJ9YE58U",1474727014507,19,2284,11,24,"Hardly Any","right","English","No",6,7,508138
"320","A23OR0D1FCUVMM:3Q5ZZ9ZEVPNNG6ZA2AVYDFZJ9YE58U",1474727016881,20,2371,24,11,"Hardly Any","right","English","No",6,7,508138
"321","A23OR0D1FCUVMM:3Q5ZZ9ZEVPNNG6ZA2AVYDFZJ9YE58U",1474727018834,21,1952,24,191,"Hardly Any","left","English","No",6,7,508138
"322","A23OR0D1FCUVMM:3Q5ZZ9ZEVPNNG6ZA2AVYDFZJ9YE58U",1474727020354,22,1519,24,20,"Hardly Any","left","English","No",6,7,508138
"323","A23OR0D1FCUVMM:3Q5ZZ9ZEVPNNG6ZA2AVYDFZJ9YE58U",1474727022602,23,2247,24,32,"Hardly Any","right","English","No",6,7,508138
"324","A23OR0D1FCUVMM:3Q5ZZ9ZEVPNNG6ZA2AVYDFZJ9YE58U",1474727024303,24,1700,24,36,"Hardly Any","left","English","No",6,7,508138
"325","A23OR0D1FCUVMM:3Q5ZZ9ZEVPNNG6ZA2AVYDFZJ9YE58U",1474727026143,25,1839,31,24,"Hardly Any","left","English","No",6,7,508138
"326","A23OR0D1FCUVMM:3Q5ZZ9ZEVPNNG6ZA2AVYDFZJ9YE58U",1474727028853,26,2709,26,31,"Hardly Any","right","English","No",6,7,508138
"327","A23OR0D1FCUVMM:3Q5ZZ9ZEVPNNG6ZA2AVYDFZJ9YE58U",1474727030203,27,1349,26,395,"Hardly Any","right","English","No",6,7,508138
"328","A23OR0D1FCUVMM:3Q5ZZ9ZEVPNNG6ZA2AVYDFZJ9YE58U",1474727031775,28,1571,26,45,"Hardly Any","left","English","No",6,7,508138
"329","A23OR0D1FCUVMM:3Q5ZZ9ZEVPNNG6ZA2AVYDFZJ9YE58U",1474727033999,29,2223,26,25,"Hardly Any","left","English","No",6,7,508138
"330","A23OR0D1FCUVMM:3Q5ZZ9ZEVPNNG6ZA2AVYDFZJ9YE58U",1474727035497,30,1497,26,337,"Hardly Any","right","English","No",6,7,508138
"331","A23OR0D1FCUVMM:3Q5ZZ9ZEVPNNG6ZA2AVYDFZJ9YE58U",1474727037581,31,2082,32,26,"Hardly Any","right","English","No",6,7,508138
"332","A23OR0D1FCUVMM:3Q5ZZ9ZEVPNNG6ZA2AVYDFZJ9YE58U",1474727039442,32,1860,29,32,"Hardly Any","left","English","No",6,7,508138
"333","A23OR0D1FCUVMM:3Q5ZZ9ZEVPNNG6ZA2AVYDFZJ9YE58U",1474727041838,33,2395,14,29,"Hardly Any","right","English","No",6,7,508138
"334","A23OR0D1FCUVMM:3Q5ZZ9ZEVPNNG6ZA2AVYDFZJ9YE58U",1474727043351,34,1512,14,332,"Hardly Any","left","English","No",6,7,508138
"335","A23OR0D1FCUVMM:3Q5ZZ9ZEVPNNG6ZA2AVYDFZJ9YE58U",1474727045259,35,1907,14,21,"Hardly Any","left","English","No",6,7,508138
"336","A23OR0D1FCUVMM:3Q5ZZ9ZEVPNNG6ZA2AVYDFZJ9YE58U",1474727048066,36,2806,14,33,"Hardly Any","left","English","No",6,7,508138
"337","A23OR0D1FCUVMM:3Q5ZZ9ZEVPNNG6ZA2AVYDFZJ9YE58U",1474727050518,37,2451,14,64,"Hardly Any","right","English","No",6,7,508138
"338","A23OR0D1FCUVMM:3Q5ZZ9ZEVPNNG6ZA2AVYDFZJ9YE58U",1474727051933,38,1414,14,426,"Hardly Any","left","English","No",6,7,508138
"339","A23OR0D1FCUVMM:3Q5ZZ9ZEVPNNG6ZA2AVYDFZJ9YE58U",1474727054236,39,2301,5,14,"Hardly Any","left","English","No",6,7,508138
"340","A23OR0D1FCUVMM:3Q5ZZ9ZEVPNNG6ZA2AVYDFZJ9YE58U",1474727055483,40,1246,5,429,"Hardly Any","right","English","No",6,7,508138
"341","A23OR0D1FCUVMM:3Q5ZZ9ZEVPNNG6ZA2AVYDFZJ9YE58U",1474727057055,41,1571,5,237,"Hardly Any","right","English","No",6,7,508138
"342","A23OR0D1FCUVMM:3Q5ZZ9ZEVPNNG6ZA2AVYDFZJ9YE58U",1474727059003,42,1947,5,24,"Hardly Any","left","English","No",6,7,508138
"343","A23OR0D1FCUVMM:3Q5ZZ9ZEVPNNG6ZA2AVYDFZJ9YE58U",1474727060697,43,1693,5,3,"Hardly Any","left","English","No",6,7,508138
"344","A23OR0D1FCUVMM:3Q5ZZ9ZEVPNNG6ZA2AVYDFZJ9YE58U",1474727062620,44,1922,1,5,"Hardly Any","right","English","No",6,7,508138
"345","A23OR0D1FCUVMM:3Q5ZZ9ZEVPNNG6ZA2AVYDFZJ9YE58U",1474727064092,45,1471,1,114,"Hardly Any","left","English","No",6,7,508138
"346","A23OR0D1FCUVMM:3Q5ZZ9ZEVPNNG6ZA2AVYDFZJ9YE58U",1474727065438,46,1345,1,241,"Hardly Any","left","English","No",6,7,508138
"347","A23OR0D1FCUVMM:3Q5ZZ9ZEVPNNG6ZA2AVYDFZJ9YE58U",1474727066944,47,1505,1,421,"Hardly Any","right","English","No",6,7,508138
"348","A23OR0D1FCUVMM:3Q5ZZ9ZEVPNNG6ZA2AVYDFZJ9YE58U",1474727068216,48,1271,1,244,"Hardly Any","right","English","No",6,7,508138
"349","A23OR0D1FCUVMM:3Q5ZZ9ZEVPNNG6ZA2AVYDFZJ9YE58U",1474727069499,49,1282,1,413,"Hardly Any","right","English","No",6,7,508138
"350","A23OR0D1FCUVMM:3Q5ZZ9ZEVPNNG6ZA2AVYDFZJ9YE58U",1474727073428,50,3928,1,377,"Hardly Any","right","English","No",6,7,508138
"351","A23OR0D1FCUVMM:3Q5ZZ9ZEVPNNG6ZA2AVYDFZJ9YE58U",1474727094154,1,4156,321,225,"All","left","English","No",6,7,508138
"352","A23OR0D1FCUVMM:3Q5ZZ9ZEVPNNG6ZA2AVYDFZJ9YE58U",1474727095661,2,1507,321,64,"All","left","English","No",6,7,508138
"353","A23OR0D1FCUVMM:3Q5ZZ9ZEVPNNG6ZA2AVYDFZJ9YE58U",1474727098253,3,2591,314,321,"All","right","English","No",6,7,508138
"354","A23OR0D1FCUVMM:3Q5ZZ9ZEVPNNG6ZA2AVYDFZJ9YE58U",1474727099735,4,1482,314,321,"All","right","English","No",6,7,508138
"355","A23OR0D1FCUVMM:3Q5ZZ9ZEVPNNG6ZA2AVYDFZJ9YE58U",1474727101143,5,1407,314,228,"All","right","English","No",6,7,508138
"356","A23OR0D1FCUVMM:3Q5ZZ9ZEVPNNG6ZA2AVYDFZJ9YE58U",1474727102786,6,1642,314,310,"All","right","English","No",6,7,508138
"357","A23OR0D1FCUVMM:3Q5ZZ9ZEVPNNG6ZA2AVYDFZJ9YE58U",1474727104699,7,1913,314,310,"All","left","English","No",6,7,508138
"358","A23OR0D1FCUVMM:3Q5ZZ9ZEVPNNG6ZA2AVYDFZJ9YE58U",1474727106558,8,1858,323,314,"All","left","English","No",6,7,508138
"359","A23OR0D1FCUVMM:3Q5ZZ9ZEVPNNG6ZA2AVYDFZJ9YE58U",1474727108311,9,1752,323,310,"All","left","English","No",6,7,508138
"360","A23OR0D1FCUVMM:3Q5ZZ9ZEVPNNG6ZA2AVYDFZJ9YE58U",1474727111785,10,3473,323,339,"All","right","English","No",6,7,508138
"361","A23OR0D1FCUVMM:3Q5ZZ9ZEVPNNG6ZA2AVYDFZJ9YE58U",1474727113261,11,1475,323,119,"All","right","English","No",6,7,508138
"362","A23OR0D1FCUVMM:3Q5ZZ9ZEVPNNG6ZA2AVYDFZJ9YE58U",1474727116730,12,3468,323,305,"All","left","English","No",6,7,508138
"363","A23OR0D1FCUVMM:3Q5ZZ9ZEVPNNG6ZA2AVYDFZJ9YE58U",1474727118269,13,1538,323,53,"All","right","English","No",6,7,508138
"364","A23OR0D1FCUVMM:3Q5ZZ9ZEVPNNG6ZA2AVYDFZJ9YE58U",1474727119800,14,1530,323,232,"All","left","English","No",6,7,508138
"365","A23OR0D1FCUVMM:3Q5ZZ9ZEVPNNG6ZA2AVYDFZJ9YE58U",1474727121486,15,1684,323,279,"All","left","English","No",6,7,508138
"366","A23OR0D1FCUVMM:3Q5ZZ9ZEVPNNG6ZA2AVYDFZJ9YE58U",1474727123050,16,1562,323,175,"All","right","English","No",6,7,508138
"367","A23OR0D1FCUVMM:3Q5ZZ9ZEVPNNG6ZA2AVYDFZJ9YE58U",1474727124657,17,1606,427,323,"All","left","English","No",6,7,508138
"368","A23OR0D1FCUVMM:3Q5ZZ9ZEVPNNG6ZA2AVYDFZJ9YE58U",1474727125924,18,1266,427,1,"All","left","English","No",6,7,508138
"369","A23OR0D1FCUVMM:3Q5ZZ9ZEVPNNG6ZA2AVYDFZJ9YE58U",1474727127494,19,1569,427,148,"All","right","English","No",6,7,508138
"370","A23OR0D1FCUVMM:3Q5ZZ9ZEVPNNG6ZA2AVYDFZJ9YE58U",1474727129440,20,1944,424,427,"All","right","English","No",6,7,508138
"371","A23OR0D1FCUVMM:3Q5ZZ9ZEVPNNG6ZA2AVYDFZJ9YE58U",1474727130753,21,1312,424,12,"All","right","English","No",6,7,508138
"372","A23OR0D1FCUVMM:3Q5ZZ9ZEVPNNG6ZA2AVYDFZJ9YE58U",1474727132229,22,1475,424,1,"All","left","English","No",6,7,508138
"373","A23OR0D1FCUVMM:3Q5ZZ9ZEVPNNG6ZA2AVYDFZJ9YE58U",1474727134099,23,1869,424,425,"All","left","English","No",6,7,508138
"374","A23OR0D1FCUVMM:3Q5ZZ9ZEVPNNG6ZA2AVYDFZJ9YE58U",1474727135784,24,1684,424,319,"All","left","English","No",6,7,508138
"375","A23OR0D1FCUVMM:3Q5ZZ9ZEVPNNG6ZA2AVYDFZJ9YE58U",1474727136957,25,1172,424,131,"All","left","English","No",6,7,508138
"376","A23OR0D1FCUVMM:3Q5ZZ9ZEVPNNG6ZA2AVYDFZJ9YE58U",1474727140456,26,3498,424,424,"All","right","English","No",6,7,508138
"377","A23OR0D1FCUVMM:3Q5ZZ9ZEVPNNG6ZA2AVYDFZJ9YE58U",1474727141943,27,1486,424,9,"All","right","English","No",6,7,508138
"378","A23OR0D1FCUVMM:3Q5ZZ9ZEVPNNG6ZA2AVYDFZJ9YE58U",1474727143547,28,1604,424,407,"All","left","English","No",6,7,508138
"379","A23OR0D1FCUVMM:3Q5ZZ9ZEVPNNG6ZA2AVYDFZJ9YE58U",1474727144857,29,1309,424,39,"All","left","English","No",6,7,508138
"380","A23OR0D1FCUVMM:3Q5ZZ9ZEVPNNG6ZA2AVYDFZJ9YE58U",1474727147509,30,2651,424,417,"All","right","English","No",6,7,508138
"381","A23OR0D1FCUVMM:3Q5ZZ9ZEVPNNG6ZA2AVYDFZJ9YE58U",1474727149341,31,1832,424,50,"All","left","English","No",6,7,508138
"382","A23OR0D1FCUVMM:3Q5ZZ9ZEVPNNG6ZA2AVYDFZJ9YE58U",1474727150969,32,1626,424,7,"All","right","English","No",6,7,508138
"383","A23OR0D1FCUVMM:3Q5ZZ9ZEVPNNG6ZA2AVYDFZJ9YE58U",1474727152811,33,1842,424,410,"All","left","English","No",6,7,508138
"384","A23OR0D1FCUVMM:3Q5ZZ9ZEVPNNG6ZA2AVYDFZJ9YE58U",1474727154443,34,1631,424,404,"All","left","English","No",6,7,508138
"385","A23OR0D1FCUVMM:3Q5ZZ9ZEVPNNG6ZA2AVYDFZJ9YE58U",1474727156021,35,1577,424,258,"All","right","English","No",6,7,508138
"386","A23OR0D1FCUVMM:3Q5ZZ9ZEVPNNG6ZA2AVYDFZJ9YE58U",1474727157249,36,1228,424,8,"All","left","English","No",6,7,508138
"387","A23OR0D1FCUVMM:3Q5ZZ9ZEVPNNG6ZA2AVYDFZJ9YE58U",1474727160419,37,3170,421,424,"All","right","English","No",6,7,508138
"388","A23OR0D1FCUVMM:3Q5ZZ9ZEVPNNG6ZA2AVYDFZJ9YE58U",1474727162178,38,1758,421,385,"All","right","English","No",6,7,508138
"389","A23OR0D1FCUVMM:3Q5ZZ9ZEVPNNG6ZA2AVYDFZJ9YE58U",1474727163581,39,1402,421,319,"All","right","English","No",6,7,508138
"390","A23OR0D1FCUVMM:3Q5ZZ9ZEVPNNG6ZA2AVYDFZJ9YE58U",1474727165610,40,2027,428,421,"All","left","English","No",6,7,508138
"391","A23OR0D1FCUVMM:3Q5ZZ9ZEVPNNG6ZA2AVYDFZJ9YE58U",1474727168987,41,3377,428,418,"All","left","English","No",6,7,508138
"392","A23OR0D1FCUVMM:3Q5ZZ9ZEVPNNG6ZA2AVYDFZJ9YE58U",1474727170994,42,2006,427,428,"All","left","English","No",6,7,508138
"393","A23OR0D1FCUVMM:3Q5ZZ9ZEVPNNG6ZA2AVYDFZJ9YE58U",1474727172487,43,1492,427,427,"All","left","English","No",6,7,508138
"394","A23OR0D1FCUVMM:3Q5ZZ9ZEVPNNG6ZA2AVYDFZJ9YE58U",1474727174591,44,2103,427,423,"All","left","English","No",6,7,508138
"395","A23OR0D1FCUVMM:3Q5ZZ9ZEVPNNG6ZA2AVYDFZJ9YE58U",1474727176201,45,1608,427,427,"All","left","English","No",6,7,508138
"396","A23OR0D1FCUVMM:3Q5ZZ9ZEVPNNG6ZA2AVYDFZJ9YE58U",1474727178769,46,2567,427,417,"All","left","English","No",6,7,508138
"397","A23OR0D1FCUVMM:3Q5ZZ9ZEVPNNG6ZA2AVYDFZJ9YE58U",1474727181238,47,2467,427,427,"All","left","English","No",6,7,508138
"398","A23OR0D1FCUVMM:3Q5ZZ9ZEVPNNG6ZA2AVYDFZJ9YE58U",1474727182580,48,1341,427,3,"All","left","English","No",6,7,508138
"399","A23OR0D1FCUVMM:3Q5ZZ9ZEVPNNG6ZA2AVYDFZJ9YE58U",1474727184288,49,1707,427,3,"All","right","English","No",6,7,508138
"400","A23OR0D1FCUVMM:3Q5ZZ9ZEVPNNG6ZA2AVYDFZJ9YE58U",1474727188034,50,3745,427,412,"All","right","English","No",6,7,508138
"401","A24NUJ0TMY0GBG:3AMYWKA6YCUMK2M4EAUZ273JKYRO6U",1474742272411,1,7603,191,182,"Most","right","ENGLISH",NA,10,5,444791
"402","A24NUJ0TMY0GBG:3AMYWKA6YCUMK2M4EAUZ273JKYRO6U",1474742276666,2,4254,224,191,"Most","left","ENGLISH",NA,10,5,444791
"403","A24NUJ0TMY0GBG:3AMYWKA6YCUMK2M4EAUZ273JKYRO6U",1474742278731,3,2063,224,143,"Most","right","ENGLISH",NA,10,5,444791
"404","A24NUJ0TMY0GBG:3AMYWKA6YCUMK2M4EAUZ273JKYRO6U",1474742280843,4,2111,219,224,"Most","right","ENGLISH",NA,10,5,444791
"405","A24NUJ0TMY0GBG:3AMYWKA6YCUMK2M4EAUZ273JKYRO6U",1474742284435,5,3592,219,209,"Most","left","ENGLISH",NA,10,5,444791
"406","A24NUJ0TMY0GBG:3AMYWKA6YCUMK2M4EAUZ273JKYRO6U",1474742286587,6,2151,306,219,"Most","left","ENGLISH",NA,10,5,444791
"407","A24NUJ0TMY0GBG:3AMYWKA6YCUMK2M4EAUZ273JKYRO6U",1474742287991,7,1404,306,106,"Most","right","ENGLISH",NA,10,5,444791
"408","A24NUJ0TMY0GBG:3AMYWKA6YCUMK2M4EAUZ273JKYRO6U",1474742289895,8,1904,325,306,"Most","left","ENGLISH",NA,10,5,444791
"409","A24NUJ0TMY0GBG:3AMYWKA6YCUMK2M4EAUZ273JKYRO6U",1474742292011,9,2116,325,328,"Most","left","ENGLISH",NA,10,5,444791
"410","A24NUJ0TMY0GBG:3AMYWKA6YCUMK2M4EAUZ273JKYRO6U",1474742293871,10,1860,310,325,"Most","left","ENGLISH",NA,10,5,444791
"411","A24NUJ0TMY0GBG:3AMYWKA6YCUMK2M4EAUZ273JKYRO6U",1474742295651,11,1780,299,310,"Most","right","ENGLISH",NA,10,5,444791
"412","A24NUJ0TMY0GBG:3AMYWKA6YCUMK2M4EAUZ273JKYRO6U",1474742297815,12,2164,289,299,"Most","left","ENGLISH",NA,10,5,444791
"413","A24NUJ0TMY0GBG:3AMYWKA6YCUMK2M4EAUZ273JKYRO6U",1474742300367,13,2552,297,289,"Most","right","ENGLISH",NA,10,5,444791
"414","A24NUJ0TMY0GBG:3AMYWKA6YCUMK2M4EAUZ273JKYRO6U",1474742307146,14,6779,297,308,"Most","right","ENGLISH",NA,10,5,444791
"415","A24NUJ0TMY0GBG:3AMYWKA6YCUMK2M4EAUZ273JKYRO6U",1474742308835,15,1688,297,72,"Most","left","ENGLISH",NA,10,5,444791
"416","A24NUJ0TMY0GBG:3AMYWKA6YCUMK2M4EAUZ273JKYRO6U",1474742310806,16,1971,297,280,"Most","left","ENGLISH",NA,10,5,444791
"417","A24NUJ0TMY0GBG:3AMYWKA6YCUMK2M4EAUZ273JKYRO6U",1474742312503,17,1696,310,297,"Most","left","ENGLISH",NA,10,5,444791
"418","A24NUJ0TMY0GBG:3AMYWKA6YCUMK2M4EAUZ273JKYRO6U",1474742314271,18,1768,310,195,"Most","right","ENGLISH",NA,10,5,444791
"419","A24NUJ0TMY0GBG:3AMYWKA6YCUMK2M4EAUZ273JKYRO6U",1474742316122,19,1851,329,310,"Most","right","ENGLISH",NA,10,5,444791
"420","A24NUJ0TMY0GBG:3AMYWKA6YCUMK2M4EAUZ273JKYRO6U",1474742317643,20,1520,357,329,"Most","left","ENGLISH",NA,10,5,444791
"421","A24NUJ0TMY0GBG:3AMYWKA6YCUMK2M4EAUZ273JKYRO6U",1474742318979,21,1336,357,38,"Most","right","ENGLISH",NA,10,5,444791
"422","A24NUJ0TMY0GBG:3AMYWKA6YCUMK2M4EAUZ273JKYRO6U",1474742320411,22,1431,357,246,"Most","left","ENGLISH",NA,10,5,444791
"423","A24NUJ0TMY0GBG:3AMYWKA6YCUMK2M4EAUZ273JKYRO6U",1474742322346,23,1935,357,348,"Most","right","ENGLISH",NA,10,5,444791
"424","A24NUJ0TMY0GBG:3AMYWKA6YCUMK2M4EAUZ273JKYRO6U",1474742323739,24,1392,350,357,"Most","left","ENGLISH",NA,10,5,444791
"425","A24NUJ0TMY0GBG:3AMYWKA6YCUMK2M4EAUZ273JKYRO6U",1474742325379,25,1640,350,354,"Most","left","ENGLISH",NA,10,5,444791
"426","A24NUJ0TMY0GBG:3AMYWKA6YCUMK2M4EAUZ273JKYRO6U",1474742326926,26,1547,350,31,"Most","right","ENGLISH",NA,10,5,444791
"427","A24NUJ0TMY0GBG:3AMYWKA6YCUMK2M4EAUZ273JKYRO6U",1474742328387,27,1460,350,138,"Most","left","ENGLISH",NA,10,5,444791
"428","A24NUJ0TMY0GBG:3AMYWKA6YCUMK2M4EAUZ273JKYRO6U",1474742331415,28,3028,355,350,"Most","left","ENGLISH",NA,10,5,444791
"429","A24NUJ0TMY0GBG:3AMYWKA6YCUMK2M4EAUZ273JKYRO6U",1474742332975,29,1559,355,201,"Most","right","ENGLISH",NA,10,5,444791
"430","A24NUJ0TMY0GBG:3AMYWKA6YCUMK2M4EAUZ273JKYRO6U",1474742334416,30,1441,355,152,"Most","left","ENGLISH",NA,10,5,444791
"431","A24NUJ0TMY0GBG:3AMYWKA6YCUMK2M4EAUZ273JKYRO6U",1474742336486,31,2055,355,366,"Most","left","ENGLISH",NA,10,5,444791
"432","A24NUJ0TMY0GBG:3AMYWKA6YCUMK2M4EAUZ273JKYRO6U",1474742338191,32,1704,355,194,"Most","right","ENGLISH",NA,10,5,444791
"433","A24NUJ0TMY0GBG:3AMYWKA6YCUMK2M4EAUZ273JKYRO6U",1474742339679,33,1488,355,369,"Most","left","ENGLISH",NA,10,5,444791
"434","A24NUJ0TMY0GBG:3AMYWKA6YCUMK2M4EAUZ273JKYRO6U",1474742342079,34,2400,355,199,"Most","right","ENGLISH",NA,10,5,444791
"435","A24NUJ0TMY0GBG:3AMYWKA6YCUMK2M4EAUZ273JKYRO6U",1474742344036,35,1957,373,355,"Most","right","ENGLISH",NA,10,5,444791
"436","A24NUJ0TMY0GBG:3AMYWKA6YCUMK2M4EAUZ273JKYRO6U",1474742345535,36,1484,373,364,"Most","right","ENGLISH",NA,10,5,444791
"437","A24NUJ0TMY0GBG:3AMYWKA6YCUMK2M4EAUZ273JKYRO6U",1474742347127,37,1592,373,121,"Most","right","ENGLISH",NA,10,5,444791
"438","A24NUJ0TMY0GBG:3AMYWKA6YCUMK2M4EAUZ273JKYRO6U",1474742348482,38,1355,373,332,"Most","left","ENGLISH",NA,10,5,444791
"439","A24NUJ0TMY0GBG:3AMYWKA6YCUMK2M4EAUZ273JKYRO6U",1474742349906,39,1423,373,64,"Most","right","ENGLISH",NA,10,5,444791
"440","A24NUJ0TMY0GBG:3AMYWKA6YCUMK2M4EAUZ273JKYRO6U",1474742351783,40,1876,373,372,"Most","right","ENGLISH",NA,10,5,444791
"441","A24NUJ0TMY0GBG:3AMYWKA6YCUMK2M4EAUZ273JKYRO6U",1474742353226,41,1443,373,331,"Most","left","ENGLISH",NA,10,5,444791
"442","A24NUJ0TMY0GBG:3AMYWKA6YCUMK2M4EAUZ273JKYRO6U",1474742355023,42,1788,373,382,"Most","right","ENGLISH",NA,10,5,444791
"443","A24NUJ0TMY0GBG:3AMYWKA6YCUMK2M4EAUZ273JKYRO6U",1474742356443,43,1420,373,85,"Most","left","ENGLISH",NA,10,5,444791
"444","A24NUJ0TMY0GBG:3AMYWKA6YCUMK2M4EAUZ273JKYRO6U",1474742357731,44,1288,362,373,"Most","right","ENGLISH",NA,10,5,444791
"445","A24NUJ0TMY0GBG:3AMYWKA6YCUMK2M4EAUZ273JKYRO6U",1474742359115,45,1384,362,149,"Most","left","ENGLISH",NA,10,5,444791
"446","A24NUJ0TMY0GBG:3AMYWKA6YCUMK2M4EAUZ273JKYRO6U",1474742360411,46,1296,366,362,"Most","right","ENGLISH",NA,10,5,444791
"447","A24NUJ0TMY0GBG:3AMYWKA6YCUMK2M4EAUZ273JKYRO6U",1474742361851,47,1440,366,301,"Most","left","ENGLISH",NA,10,5,444791
"448","A24NUJ0TMY0GBG:3AMYWKA6YCUMK2M4EAUZ273JKYRO6U",1474742363307,48,1456,366,358,"Most","right","ENGLISH",NA,10,5,444791
"449","A24NUJ0TMY0GBG:3AMYWKA6YCUMK2M4EAUZ273JKYRO6U",1474742364751,49,1444,366,357,"Most","right","ENGLISH",NA,10,5,444791
"450","A24NUJ0TMY0GBG:3AMYWKA6YCUMK2M4EAUZ273JKYRO6U",1474742366826,50,2075,366,372,"Most","right","ENGLISH",NA,10,5,444791
"451","A24NUJ0TMY0GBG:3AMYWKA6YCUMK2M4EAUZ273JKYRO6U",1474742373682,1,2751,244,168,"All","left","ENGLISH",NA,10,5,444791
"452","A24NUJ0TMY0GBG:3AMYWKA6YCUMK2M4EAUZ273JKYRO6U",1474742375455,2,1772,250,244,"All","left","ENGLISH",NA,10,5,444791
"453","A24NUJ0TMY0GBG:3AMYWKA6YCUMK2M4EAUZ273JKYRO6U",1474742376987,3,1532,325,250,"All","right","ENGLISH",NA,10,5,444791
"454","A24NUJ0TMY0GBG:3AMYWKA6YCUMK2M4EAUZ273JKYRO6U",1474742379019,4,2032,325,324,"All","right","ENGLISH",NA,10,5,444791
"455","A24NUJ0TMY0GBG:3AMYWKA6YCUMK2M4EAUZ273JKYRO6U",1474742380235,5,1216,340,325,"All","right","ENGLISH",NA,10,5,444791
"456","A24NUJ0TMY0GBG:3AMYWKA6YCUMK2M4EAUZ273JKYRO6U",1474742382026,6,1791,340,322,"All","right","ENGLISH",NA,10,5,444791
"457","A24NUJ0TMY0GBG:3AMYWKA6YCUMK2M4EAUZ273JKYRO6U",1474742383499,7,1468,340,313,"All","left","ENGLISH",NA,10,5,444791
"458","A24NUJ0TMY0GBG:3AMYWKA6YCUMK2M4EAUZ273JKYRO6U",1474742386743,8,3244,340,322,"All","right","ENGLISH",NA,10,5,444791
"459","A24NUJ0TMY0GBG:3AMYWKA6YCUMK2M4EAUZ273JKYRO6U",1474742419129,9,32386,340,331,"All","left","ENGLISH",NA,10,5,444791
"460","A24NUJ0TMY0GBG:3AMYWKA6YCUMK2M4EAUZ273JKYRO6U",1474742420389,10,1259,358,340,"All","right","ENGLISH",NA,10,5,444791
"461","A24NUJ0TMY0GBG:3AMYWKA6YCUMK2M4EAUZ273JKYRO6U",1474742421905,11,1515,350,358,"All","right","ENGLISH",NA,10,5,444791
"462","A24NUJ0TMY0GBG:3AMYWKA6YCUMK2M4EAUZ273JKYRO6U",1474742423301,12,1396,347,350,"All","left","ENGLISH",NA,10,5,444791
"463","A24NUJ0TMY0GBG:3AMYWKA6YCUMK2M4EAUZ273JKYRO6U",1474742424829,13,1527,347,341,"All","right","ENGLISH",NA,10,5,444791
"464","A24NUJ0TMY0GBG:3AMYWKA6YCUMK2M4EAUZ273JKYRO6U",1474742426349,14,1519,346,347,"All","right","ENGLISH",NA,10,5,444791
"465","A24NUJ0TMY0GBG:3AMYWKA6YCUMK2M4EAUZ273JKYRO6U",1474742427701,15,1352,346,105,"All","right","ENGLISH",NA,10,5,444791
"466","A24NUJ0TMY0GBG:3AMYWKA6YCUMK2M4EAUZ273JKYRO6U",1474742429193,16,1490,346,329,"All","right","ENGLISH",NA,10,5,444791
"467","A24NUJ0TMY0GBG:3AMYWKA6YCUMK2M4EAUZ273JKYRO6U",1474742430849,17,1655,336,346,"All","left","ENGLISH",NA,10,5,444791
"468","A24NUJ0TMY0GBG:3AMYWKA6YCUMK2M4EAUZ273JKYRO6U",1474742432609,18,1759,327,336,"All","right","ENGLISH",NA,10,5,444791
"469","A24NUJ0TMY0GBG:3AMYWKA6YCUMK2M4EAUZ273JKYRO6U",1474742435062,19,2452,327,328,"All","left","ENGLISH",NA,10,5,444791
"470","A24NUJ0TMY0GBG:3AMYWKA6YCUMK2M4EAUZ273JKYRO6U",1474742436417,20,1355,409,327,"All","left","ENGLISH",NA,10,5,444791
"471","A24NUJ0TMY0GBG:3AMYWKA6YCUMK2M4EAUZ273JKYRO6U",1474742437958,21,1541,422,409,"All","left","ENGLISH",NA,10,5,444791
"472","A24NUJ0TMY0GBG:3AMYWKA6YCUMK2M4EAUZ273JKYRO6U",1474742439385,22,1427,422,217,"All","right","ENGLISH",NA,10,5,444791
"473","A24NUJ0TMY0GBG:3AMYWKA6YCUMK2M4EAUZ273JKYRO6U",1474742441294,23,1909,422,317,"All","right","ENGLISH",NA,10,5,444791
"474","A24NUJ0TMY0GBG:3AMYWKA6YCUMK2M4EAUZ273JKYRO6U",1474742442769,24,1475,422,285,"All","left","ENGLISH",NA,10,5,444791
"475","A24NUJ0TMY0GBG:3AMYWKA6YCUMK2M4EAUZ273JKYRO6U",1474742446325,25,3555,422,419,"All","right","ENGLISH",NA,10,5,444791
"476","A24NUJ0TMY0GBG:3AMYWKA6YCUMK2M4EAUZ273JKYRO6U",1474742447678,26,1352,422,294,"All","right","ENGLISH",NA,10,5,444791
"477","A24NUJ0TMY0GBG:3AMYWKA6YCUMK2M4EAUZ273JKYRO6U",1474742449265,27,1587,422,33,"All","left","ENGLISH",NA,10,5,444791
"478","A24NUJ0TMY0GBG:3AMYWKA6YCUMK2M4EAUZ273JKYRO6U",1474742450713,28,1448,422,426,"All","right","ENGLISH",NA,10,5,444791
"479","A24NUJ0TMY0GBG:3AMYWKA6YCUMK2M4EAUZ273JKYRO6U",1474742452365,29,1651,419,422,"All","left","ENGLISH",NA,10,5,444791
"480","A24NUJ0TMY0GBG:3AMYWKA6YCUMK2M4EAUZ273JKYRO6U",1474742453825,30,1460,419,404,"All","right","ENGLISH",NA,10,5,444791
"481","A24NUJ0TMY0GBG:3AMYWKA6YCUMK2M4EAUZ273JKYRO6U",1474742455218,31,1392,419,154,"All","right","ENGLISH",NA,10,5,444791
"482","A24NUJ0TMY0GBG:3AMYWKA6YCUMK2M4EAUZ273JKYRO6U",1474742456726,32,1508,419,18,"All","right","ENGLISH",NA,10,5,444791
"483","A24NUJ0TMY0GBG:3AMYWKA6YCUMK2M4EAUZ273JKYRO6U",1474742458502,33,1775,419,409,"All","right","ENGLISH",NA,10,5,444791
"484","A24NUJ0TMY0GBG:3AMYWKA6YCUMK2M4EAUZ273JKYRO6U",1474742459962,34,1459,419,213,"All","left","ENGLISH",NA,10,5,444791
"485","A24NUJ0TMY0GBG:3AMYWKA6YCUMK2M4EAUZ273JKYRO6U",1474742461311,35,1348,419,417,"All","right","ENGLISH",NA,10,5,444791
"486","A24NUJ0TMY0GBG:3AMYWKA6YCUMK2M4EAUZ273JKYRO6U",1474742462771,36,1460,413,419,"All","left","ENGLISH",NA,10,5,444791
"487","A24NUJ0TMY0GBG:3AMYWKA6YCUMK2M4EAUZ273JKYRO6U",1474742464314,37,1543,413,243,"All","right","ENGLISH",NA,10,5,444791
"488","A24NUJ0TMY0GBG:3AMYWKA6YCUMK2M4EAUZ273JKYRO6U",1474742465978,38,1663,413,417,"All","right","ENGLISH",NA,10,5,444791
"489","A24NUJ0TMY0GBG:3AMYWKA6YCUMK2M4EAUZ273JKYRO6U",1474742467434,39,1455,413,103,"All","right","ENGLISH",NA,10,5,444791
"490","A24NUJ0TMY0GBG:3AMYWKA6YCUMK2M4EAUZ273JKYRO6U",1474742469306,40,1871,413,398,"All","right","ENGLISH",NA,10,5,444791
"491","A24NUJ0TMY0GBG:3AMYWKA6YCUMK2M4EAUZ273JKYRO6U",1474742470746,41,1439,426,413,"All","right","ENGLISH",NA,10,5,444791
"492","A24NUJ0TMY0GBG:3AMYWKA6YCUMK2M4EAUZ273JKYRO6U",1474742471982,42,1235,426,0,"All","right","ENGLISH",NA,10,5,444791
"493","A24NUJ0TMY0GBG:3AMYWKA6YCUMK2M4EAUZ273JKYRO6U",1474742473474,43,1491,426,10,"All","left","ENGLISH",NA,10,5,444791
"494","A24NUJ0TMY0GBG:3AMYWKA6YCUMK2M4EAUZ273JKYRO6U",1474742474958,44,1483,422,426,"All","right","ENGLISH",NA,10,5,444791
"495","A24NUJ0TMY0GBG:3AMYWKA6YCUMK2M4EAUZ273JKYRO6U",1474742476230,45,1271,422,5,"All","right","ENGLISH",NA,10,5,444791
"496","A24NUJ0TMY0GBG:3AMYWKA6YCUMK2M4EAUZ273JKYRO6U",1474742477714,46,1483,422,4,"All","left","ENGLISH",NA,10,5,444791
"497","A24NUJ0TMY0GBG:3AMYWKA6YCUMK2M4EAUZ273JKYRO6U",1474742482198,47,4483,414,422,"All","left","ENGLISH",NA,10,5,444791
"498","A24NUJ0TMY0GBG:3AMYWKA6YCUMK2M4EAUZ273JKYRO6U",1474742484054,48,1855,414,404,"All","right","ENGLISH",NA,10,5,444791
"499","A24NUJ0TMY0GBG:3AMYWKA6YCUMK2M4EAUZ273JKYRO6U",1474742485770,49,1715,425,414,"All","left","ENGLISH",NA,10,5,444791
"500","A24NUJ0TMY0GBG:3AMYWKA6YCUMK2M4EAUZ273JKYRO6U",1474742487918,50,2147,425,175,"All","left","ENGLISH",NA,10,5,444791
"501","A24NUJ0TMY0GBG:3AMYWKA6YCUMK2M4EAUZ273JKYRO6U",1474742498570,1,8223,365,394,"Hardly Any","left","ENGLISH",NA,10,5,444791
"502","A24NUJ0TMY0GBG:3AMYWKA6YCUMK2M4EAUZ273JKYRO6U",1474742501298,2,2727,353,365,"Hardly Any","right","ENGLISH",NA,10,5,444791
"503","A24NUJ0TMY0GBG:3AMYWKA6YCUMK2M4EAUZ273JKYRO6U",1474742502874,3,1575,163,353,"Hardly Any","left","ENGLISH",NA,10,5,444791
"504","A24NUJ0TMY0GBG:3AMYWKA6YCUMK2M4EAUZ273JKYRO6U",1474742504954,4,2079,163,159,"Hardly Any","left","ENGLISH",NA,10,5,444791
"505","A24NUJ0TMY0GBG:3AMYWKA6YCUMK2M4EAUZ273JKYRO6U",1474742506715,5,1760,161,163,"Hardly Any","left","ENGLISH",NA,10,5,444791
"506","A24NUJ0TMY0GBG:3AMYWKA6YCUMK2M4EAUZ273JKYRO6U",1474742508206,6,1491,51,161,"Hardly Any","left","ENGLISH",NA,10,5,444791
"507","A24NUJ0TMY0GBG:3AMYWKA6YCUMK2M4EAUZ273JKYRO6U",1474742509966,7,1748,87,51,"Hardly Any","left","ENGLISH",NA,10,5,444791
"508","A24NUJ0TMY0GBG:3AMYWKA6YCUMK2M4EAUZ273JKYRO6U",1474742511425,8,1458,87,86,"Hardly Any","left","ENGLISH",NA,10,5,444791
"509","A24NUJ0TMY0GBG:3AMYWKA6YCUMK2M4EAUZ273JKYRO6U",1474742512722,9,1295,87,215,"Hardly Any","left","ENGLISH",NA,10,5,444791
"510","A24NUJ0TMY0GBG:3AMYWKA6YCUMK2M4EAUZ273JKYRO6U",1474742514330,10,1607,71,87,"Hardly Any","left","ENGLISH",NA,10,5,444791
"511","A24NUJ0TMY0GBG:3AMYWKA6YCUMK2M4EAUZ273JKYRO6U",1474742515834,11,1504,63,71,"Hardly Any","left","ENGLISH",NA,10,5,444791
"512","A24NUJ0TMY0GBG:3AMYWKA6YCUMK2M4EAUZ273JKYRO6U",1474742517362,12,1528,81,63,"Hardly Any","left","ENGLISH",NA,10,5,444791
"513","A24NUJ0TMY0GBG:3AMYWKA6YCUMK2M4EAUZ273JKYRO6U",1474742518838,13,1475,81,72,"Hardly Any","left","ENGLISH",NA,10,5,444791
"514","A24NUJ0TMY0GBG:3AMYWKA6YCUMK2M4EAUZ273JKYRO6U",1474742520142,14,1304,81,82,"Hardly Any","left","ENGLISH",NA,10,5,444791
"515","A24NUJ0TMY0GBG:3AMYWKA6YCUMK2M4EAUZ273JKYRO6U",1474742521610,15,1467,81,61,"Hardly Any","left","ENGLISH",NA,10,5,444791
"516","A24NUJ0TMY0GBG:3AMYWKA6YCUMK2M4EAUZ273JKYRO6U",1474742523642,16,2031,81,27,"Hardly Any","left","ENGLISH",NA,10,5,444791
"517","A24NUJ0TMY0GBG:3AMYWKA6YCUMK2M4EAUZ273JKYRO6U",1474742525350,17,1707,81,277,"Hardly Any","left","ENGLISH",NA,10,5,444791
"518","A24NUJ0TMY0GBG:3AMYWKA6YCUMK2M4EAUZ273JKYRO6U",1474742527546,18,2196,77,81,"Hardly Any","right","ENGLISH",NA,10,5,444791
"519","A24NUJ0TMY0GBG:3AMYWKA6YCUMK2M4EAUZ273JKYRO6U",1474742529466,19,1919,95,77,"Hardly Any","left","ENGLISH",NA,10,5,444791
"520","A24NUJ0TMY0GBG:3AMYWKA6YCUMK2M4EAUZ273JKYRO6U",1474742531318,20,1851,95,241,"Hardly Any","left","ENGLISH",NA,10,5,444791
"521","A24NUJ0TMY0GBG:3AMYWKA6YCUMK2M4EAUZ273JKYRO6U",1474742532578,21,1259,4,95,"Hardly Any","left","ENGLISH",NA,10,5,444791
"522","A24NUJ0TMY0GBG:3AMYWKA6YCUMK2M4EAUZ273JKYRO6U",1474742534526,22,1947,4,82,"Hardly Any","right","ENGLISH",NA,10,5,444791
"523","A24NUJ0TMY0GBG:3AMYWKA6YCUMK2M4EAUZ273JKYRO6U",1474742536034,23,1508,4,278,"Hardly Any","left","ENGLISH",NA,10,5,444791
"524","A24NUJ0TMY0GBG:3AMYWKA6YCUMK2M4EAUZ273JKYRO6U",1474742547114,24,11079,15,4,"Hardly Any","left","ENGLISH",NA,10,5,444791
"525","A24NUJ0TMY0GBG:3AMYWKA6YCUMK2M4EAUZ273JKYRO6U",1474742548930,25,1816,15,160,"Hardly Any","right","ENGLISH",NA,10,5,444791
"526","A24NUJ0TMY0GBG:3AMYWKA6YCUMK2M4EAUZ273JKYRO6U",1474742550642,26,1712,15,142,"Hardly Any","right","ENGLISH",NA,10,5,444791
"527","A24NUJ0TMY0GBG:3AMYWKA6YCUMK2M4EAUZ273JKYRO6U",1474742552710,27,2067,16,15,"Hardly Any","right","ENGLISH",NA,10,5,444791
"528","A24NUJ0TMY0GBG:3AMYWKA6YCUMK2M4EAUZ273JKYRO6U",1474742554862,28,2152,16,16,"Hardly Any","left","ENGLISH",NA,10,5,444791
"529","A24NUJ0TMY0GBG:3AMYWKA6YCUMK2M4EAUZ273JKYRO6U",1474742556374,29,1511,16,302,"Hardly Any","left","ENGLISH",NA,10,5,444791
"530","A24NUJ0TMY0GBG:3AMYWKA6YCUMK2M4EAUZ273JKYRO6U",1474742558502,30,2127,16,13,"Hardly Any","left","ENGLISH",NA,10,5,444791
"531","A24NUJ0TMY0GBG:3AMYWKA6YCUMK2M4EAUZ273JKYRO6U",1474742560118,31,1615,16,126,"Hardly Any","right","ENGLISH",NA,10,5,444791
"532","A24NUJ0TMY0GBG:3AMYWKA6YCUMK2M4EAUZ273JKYRO6U",1474742561730,32,1612,16,260,"Hardly Any","right","ENGLISH",NA,10,5,444791
"533","A24NUJ0TMY0GBG:3AMYWKA6YCUMK2M4EAUZ273JKYRO6U",1474742564010,33,2279,16,15,"Hardly Any","left","ENGLISH",NA,10,5,444791
"534","A24NUJ0TMY0GBG:3AMYWKA6YCUMK2M4EAUZ273JKYRO6U",1474742566645,34,2635,16,73,"Hardly Any","right","ENGLISH",NA,10,5,444791
"535","A24NUJ0TMY0GBG:3AMYWKA6YCUMK2M4EAUZ273JKYRO6U",1474742568318,35,1672,16,348,"Hardly Any","right","ENGLISH",NA,10,5,444791
"536","A24NUJ0TMY0GBG:3AMYWKA6YCUMK2M4EAUZ273JKYRO6U",1474742574502,36,6184,29,16,"Hardly Any","left","ENGLISH",NA,10,5,444791
"537","A24NUJ0TMY0GBG:3AMYWKA6YCUMK2M4EAUZ273JKYRO6U",1474742576662,37,2160,13,29,"Hardly Any","left","ENGLISH",NA,10,5,444791
"538","A24NUJ0TMY0GBG:3AMYWKA6YCUMK2M4EAUZ273JKYRO6U",1474742579097,38,2435,13,299,"Hardly Any","left","ENGLISH",NA,10,5,444791
"539","A24NUJ0TMY0GBG:3AMYWKA6YCUMK2M4EAUZ273JKYRO6U",1474742581550,39,2452,13,4,"Hardly Any","left","ENGLISH",NA,10,5,444791
"540","A24NUJ0TMY0GBG:3AMYWKA6YCUMK2M4EAUZ273JKYRO6U",1474742584225,40,2675,13,400,"Hardly Any","right","ENGLISH",NA,10,5,444791
"541","A24NUJ0TMY0GBG:3AMYWKA6YCUMK2M4EAUZ273JKYRO6U",1474742585642,41,1416,13,357,"Hardly Any","left","ENGLISH",NA,10,5,444791
"542","A24NUJ0TMY0GBG:3AMYWKA6YCUMK2M4EAUZ273JKYRO6U",1474742587945,42,2302,4,13,"Hardly Any","left","ENGLISH",NA,10,5,444791
"543","A24NUJ0TMY0GBG:3AMYWKA6YCUMK2M4EAUZ273JKYRO6U",1474742589598,43,1652,4,431,"Hardly Any","left","ENGLISH",NA,10,5,444791
"544","A24NUJ0TMY0GBG:3AMYWKA6YCUMK2M4EAUZ273JKYRO6U",1474742593230,44,3632,4,6,"Hardly Any","left","ENGLISH",NA,10,5,444791
"545","A24NUJ0TMY0GBG:3AMYWKA6YCUMK2M4EAUZ273JKYRO6U",1474742597614,45,4384,4,10,"Hardly Any","left","ENGLISH",NA,10,5,444791
"546","A24NUJ0TMY0GBG:3AMYWKA6YCUMK2M4EAUZ273JKYRO6U",1474742600126,46,2512,4,23,"Hardly Any","right","ENGLISH",NA,10,5,444791
"547","A24NUJ0TMY0GBG:3AMYWKA6YCUMK2M4EAUZ273JKYRO6U",1474742606418,47,6288,4,370,"Hardly Any","left","ENGLISH",NA,10,5,444791
"548","A24NUJ0TMY0GBG:3AMYWKA6YCUMK2M4EAUZ273JKYRO6U",1474742608998,48,2580,4,4,"Hardly Any","right","ENGLISH",NA,10,5,444791
"549","A24NUJ0TMY0GBG:3AMYWKA6YCUMK2M4EAUZ273JKYRO6U",1474742611234,49,2236,8,4,"Hardly Any","right","ENGLISH",NA,10,5,444791
"550","A24NUJ0TMY0GBG:3AMYWKA6YCUMK2M4EAUZ273JKYRO6U",1474742612654,50,1420,8,421,"Hardly Any","left","ENGLISH",NA,10,5,444791
"551","A24NUJ0TMY0GBG:3AMYWKA6YCUMK2M4EAUZ273JKYRO6U",1474742618862,1,2747,212,158,"Half","left","ENGLISH",NA,10,5,444791
"552","A24NUJ0TMY0GBG:3AMYWKA6YCUMK2M4EAUZ273JKYRO6U",1474742621088,2,2226,208,212,"Half","left","ENGLISH",NA,10,5,444791
"553","A24NUJ0TMY0GBG:3AMYWKA6YCUMK2M4EAUZ273JKYRO6U",1474742622882,3,1794,194,208,"Half","right","ENGLISH",NA,10,5,444791
"554","A24NUJ0TMY0GBG:3AMYWKA6YCUMK2M4EAUZ273JKYRO6U",1474742624802,4,1920,194,180,"Half","right","ENGLISH",NA,10,5,444791
"555","A24NUJ0TMY0GBG:3AMYWKA6YCUMK2M4EAUZ273JKYRO6U",1474742626762,5,1960,194,185,"Half","right","ENGLISH",NA,10,5,444791
"556","A24NUJ0TMY0GBG:3AMYWKA6YCUMK2M4EAUZ273JKYRO6U",1474742628350,6,1588,194,214,"Half","right","ENGLISH",NA,10,5,444791
"557","A24NUJ0TMY0GBG:3AMYWKA6YCUMK2M4EAUZ273JKYRO6U",1474742630138,7,1788,194,185,"Half","right","ENGLISH",NA,10,5,444791
"558","A24NUJ0TMY0GBG:3AMYWKA6YCUMK2M4EAUZ273JKYRO6U",1474742631958,8,1820,190,194,"Half","right","ENGLISH",NA,10,5,444791
"559","A24NUJ0TMY0GBG:3AMYWKA6YCUMK2M4EAUZ273JKYRO6U",1474742634006,9,2048,190,93,"Half","right","ENGLISH",NA,10,5,444791
"560","A24NUJ0TMY0GBG:3AMYWKA6YCUMK2M4EAUZ273JKYRO6U",1474742635798,10,1792,202,190,"Half","right","ENGLISH",NA,10,5,444791
"561","A24NUJ0TMY0GBG:3AMYWKA6YCUMK2M4EAUZ273JKYRO6U",1474742637417,11,1618,204,202,"Half","right","ENGLISH",NA,10,5,444791
"562","A24NUJ0TMY0GBG:3AMYWKA6YCUMK2M4EAUZ273JKYRO6U",1474742639464,12,2046,204,300,"Half","right","ENGLISH",NA,10,5,444791
"563","A24NUJ0TMY0GBG:3AMYWKA6YCUMK2M4EAUZ273JKYRO6U",1474742644161,13,4696,206,204,"Half","right","ENGLISH",NA,10,5,444791
"564","A24NUJ0TMY0GBG:3AMYWKA6YCUMK2M4EAUZ273JKYRO6U",1474742646404,14,2243,189,206,"Half","right","ENGLISH",NA,10,5,444791
"565","A24NUJ0TMY0GBG:3AMYWKA6YCUMK2M4EAUZ273JKYRO6U",1474742648144,15,1739,189,204,"Half","left","ENGLISH",NA,10,5,444791
"566","A24NUJ0TMY0GBG:3AMYWKA6YCUMK2M4EAUZ273JKYRO6U",1474742650833,16,2688,189,77,"Half","right","ENGLISH",NA,10,5,444791
"567","A24NUJ0TMY0GBG:3AMYWKA6YCUMK2M4EAUZ273JKYRO6U",1474742653276,17,2443,208,189,"Half","left","ENGLISH",NA,10,5,444791
"568","A24NUJ0TMY0GBG:3AMYWKA6YCUMK2M4EAUZ273JKYRO6U",1474742654909,18,1632,208,226,"Half","left","ENGLISH",NA,10,5,444791
"569","A24NUJ0TMY0GBG:3AMYWKA6YCUMK2M4EAUZ273JKYRO6U",1474742656429,19,1520,207,208,"Half","left","ENGLISH",NA,10,5,444791
"570","A24NUJ0TMY0GBG:3AMYWKA6YCUMK2M4EAUZ273JKYRO6U",1474742658064,20,1635,197,207,"Half","left","ENGLISH",NA,10,5,444791
"571","A24NUJ0TMY0GBG:3AMYWKA6YCUMK2M4EAUZ273JKYRO6U",1474742659981,21,1916,197,251,"Half","right","ENGLISH",NA,10,5,444791
"572","A24NUJ0TMY0GBG:3AMYWKA6YCUMK2M4EAUZ273JKYRO6U",1474742661781,22,1800,179,197,"Half","right","ENGLISH",NA,10,5,444791
"573","A24NUJ0TMY0GBG:3AMYWKA6YCUMK2M4EAUZ273JKYRO6U",1474742663284,23,1503,190,179,"Half","right","ENGLISH",NA,10,5,444791
"574","A24NUJ0TMY0GBG:3AMYWKA6YCUMK2M4EAUZ273JKYRO6U",1474742665141,24,1844,190,198,"Half","right","ENGLISH",NA,10,5,444791
"575","A24NUJ0TMY0GBG:3AMYWKA6YCUMK2M4EAUZ273JKYRO6U",1474742667061,25,1920,59,190,"Half","right","ENGLISH",NA,10,5,444791
"576","A24NUJ0TMY0GBG:3AMYWKA6YCUMK2M4EAUZ273JKYRO6U",1474742669281,26,2220,59,43,"Half","right","ENGLISH",NA,10,5,444791
"577","A24NUJ0TMY0GBG:3AMYWKA6YCUMK2M4EAUZ273JKYRO6U",1474742671189,27,1908,59,74,"Half","right","ENGLISH",NA,10,5,444791
"578","A24NUJ0TMY0GBG:3AMYWKA6YCUMK2M4EAUZ273JKYRO6U",1474742674457,28,3268,54,59,"Half","right","ENGLISH",NA,10,5,444791
"579","A24NUJ0TMY0GBG:3AMYWKA6YCUMK2M4EAUZ273JKYRO6U",1474742676053,29,1596,54,36,"Half","left","ENGLISH",NA,10,5,444791
"580","A24NUJ0TMY0GBG:3AMYWKA6YCUMK2M4EAUZ273JKYRO6U",1474742677660,30,1607,74,54,"Half","right","ENGLISH",NA,10,5,444791
"581","A24NUJ0TMY0GBG:3AMYWKA6YCUMK2M4EAUZ273JKYRO6U",1474742680144,31,2483,74,366,"Half","right","ENGLISH",NA,10,5,444791
"582","A24NUJ0TMY0GBG:3AMYWKA6YCUMK2M4EAUZ273JKYRO6U",1474742681761,32,1616,77,74,"Half","right","ENGLISH",NA,10,5,444791
"583","A24NUJ0TMY0GBG:3AMYWKA6YCUMK2M4EAUZ273JKYRO6U",1474742683305,33,1543,77,63,"Half","right","ENGLISH",NA,10,5,444791
"584","A24NUJ0TMY0GBG:3AMYWKA6YCUMK2M4EAUZ273JKYRO6U",1474742686072,34,2767,77,59,"Half","right","ENGLISH",NA,10,5,444791
"585","A24NUJ0TMY0GBG:3AMYWKA6YCUMK2M4EAUZ273JKYRO6U",1474742687317,35,1244,77,355,"Half","right","ENGLISH",NA,10,5,444791
"586","A24NUJ0TMY0GBG:3AMYWKA6YCUMK2M4EAUZ273JKYRO6U",1474742688569,36,1252,87,77,"Half","right","ENGLISH",NA,10,5,444791
"587","A24NUJ0TMY0GBG:3AMYWKA6YCUMK2M4EAUZ273JKYRO6U",1474742689972,37,1403,182,87,"Half","right","ENGLISH",NA,10,5,444791
"588","A24NUJ0TMY0GBG:3AMYWKA6YCUMK2M4EAUZ273JKYRO6U",1474742691488,38,1515,182,376,"Half","right","ENGLISH",NA,10,5,444791
"589","A24NUJ0TMY0GBG:3AMYWKA6YCUMK2M4EAUZ273JKYRO6U",1474742692957,39,1468,183,182,"Half","right","ENGLISH",NA,10,5,444791
"590","A24NUJ0TMY0GBG:3AMYWKA6YCUMK2M4EAUZ273JKYRO6U",1474742696973,40,4016,163,183,"Half","right","ENGLISH",NA,10,5,444791
"591","A24NUJ0TMY0GBG:3AMYWKA6YCUMK2M4EAUZ273JKYRO6U",1474742698200,41,1227,163,367,"Half","right","ENGLISH",NA,10,5,444791
"592","A24NUJ0TMY0GBG:3AMYWKA6YCUMK2M4EAUZ273JKYRO6U",1474742703837,42,5636,163,422,"Half","left","ENGLISH",NA,10,5,444791
"593","A24NUJ0TMY0GBG:3AMYWKA6YCUMK2M4EAUZ273JKYRO6U",1474742705214,43,1376,163,337,"Half","right","ENGLISH",NA,10,5,444791
"594","A24NUJ0TMY0GBG:3AMYWKA6YCUMK2M4EAUZ273JKYRO6U",1474742706542,44,1328,163,413,"Half","right","ENGLISH",NA,10,5,444791
"595","A24NUJ0TMY0GBG:3AMYWKA6YCUMK2M4EAUZ273JKYRO6U",1474742708195,45,1653,162,163,"Half","right","ENGLISH",NA,10,5,444791
"596","A24NUJ0TMY0GBG:3AMYWKA6YCUMK2M4EAUZ273JKYRO6U",1474742709750,46,1544,162,180,"Half","right","ENGLISH",NA,10,5,444791
"597","A24NUJ0TMY0GBG:3AMYWKA6YCUMK2M4EAUZ273JKYRO6U",1474742711150,47,1400,162,145,"Half","right","ENGLISH",NA,10,5,444791
"598","A24NUJ0TMY0GBG:3AMYWKA6YCUMK2M4EAUZ273JKYRO6U",1474742713174,48,2024,174,162,"Half","right","ENGLISH",NA,10,5,444791
"599","A24NUJ0TMY0GBG:3AMYWKA6YCUMK2M4EAUZ273JKYRO6U",1474742714941,49,1763,174,162,"Half","right","ENGLISH",NA,10,5,444791
"600","A24NUJ0TMY0GBG:3AMYWKA6YCUMK2M4EAUZ273JKYRO6U",1474742717202,50,2260,171,174,"Half","right","ENGLISH",NA,10,5,444791
"601","A3F6SDO4GYBE4Y:3IUZPWIU1PF1OQGV70FATKLNOUDKW8",1474640294800,1,8976,56,124,"Hardly Any","right","English","no",8,5,360447
"602","A3F6SDO4GYBE4Y:3IUZPWIU1PF1OQGV70FATKLNOUDKW8",1474640297904,2,3102,56,58,"Hardly Any","right","English","no",8,5,360447
"603","A3F6SDO4GYBE4Y:3IUZPWIU1PF1OQGV70FATKLNOUDKW8",1474640302552,3,4648,57,56,"Hardly Any","left","English","no",8,5,360447
"604","A3F6SDO4GYBE4Y:3IUZPWIU1PF1OQGV70FATKLNOUDKW8",1474640306264,4,3711,57,65,"Hardly Any","left","English","no",8,5,360447
"605","A3F6SDO4GYBE4Y:3IUZPWIU1PF1OQGV70FATKLNOUDKW8",1474640309112,5,2848,57,38,"Hardly Any","right","English","no",8,5,360447
"606","A3F6SDO4GYBE4Y:3IUZPWIU1PF1OQGV70FATKLNOUDKW8",1474640311504,6,2391,66,57,"Hardly Any","left","English","no",8,5,360447
"607","A3F6SDO4GYBE4Y:3IUZPWIU1PF1OQGV70FATKLNOUDKW8",1474640313048,7,1542,66,286,"Hardly Any","right","English","no",8,5,360447
"608","A3F6SDO4GYBE4Y:3IUZPWIU1PF1OQGV70FATKLNOUDKW8",1474640315288,8,2240,51,66,"Hardly Any","left","English","no",8,5,360447
"609","A3F6SDO4GYBE4Y:3IUZPWIU1PF1OQGV70FATKLNOUDKW8",1474640318800,9,3512,51,68,"Hardly Any","right","English","no",8,5,360447
"610","A3F6SDO4GYBE4Y:3IUZPWIU1PF1OQGV70FATKLNOUDKW8",1474640320784,10,1983,51,320,"Hardly Any","right","English","no",8,5,360447
"611","A3F6SDO4GYBE4Y:3IUZPWIU1PF1OQGV70FATKLNOUDKW8",1474640322672,11,1887,51,316,"Hardly Any","right","English","no",8,5,360447
"612","A3F6SDO4GYBE4Y:3IUZPWIU1PF1OQGV70FATKLNOUDKW8",1474640325256,12,2583,51,34,"Hardly Any","left","English","no",8,5,360447
"613","A3F6SDO4GYBE4Y:3IUZPWIU1PF1OQGV70FATKLNOUDKW8",1474640327120,13,1863,51,68,"Hardly Any","left","English","no",8,5,360447
"614","A3F6SDO4GYBE4Y:3IUZPWIU1PF1OQGV70FATKLNOUDKW8",1474640329648,14,2527,51,57,"Hardly Any","left","English","no",8,5,360447
"615","A3F6SDO4GYBE4Y:3IUZPWIU1PF1OQGV70FATKLNOUDKW8",1474640333287,15,3639,49,51,"Hardly Any","right","English","no",8,5,360447
"616","A3F6SDO4GYBE4Y:3IUZPWIU1PF1OQGV70FATKLNOUDKW8",1474640335279,16,1991,31,49,"Hardly Any","left","English","no",8,5,360447
"617","A3F6SDO4GYBE4Y:3IUZPWIU1PF1OQGV70FATKLNOUDKW8",1474640337416,17,2136,35,31,"Hardly Any","left","English","no",8,5,360447
"618","A3F6SDO4GYBE4Y:3IUZPWIU1PF1OQGV70FATKLNOUDKW8",1474640339055,18,1639,21,35,"Hardly Any","left","English","no",8,5,360447
"619","A3F6SDO4GYBE4Y:3IUZPWIU1PF1OQGV70FATKLNOUDKW8",1474640341767,19,2711,6,21,"Hardly Any","left","English","no",8,5,360447
"620","A3F6SDO4GYBE4Y:3IUZPWIU1PF1OQGV70FATKLNOUDKW8",1474640344232,20,2464,0,6,"Hardly Any","left","English","no",8,5,360447
"621","A3F6SDO4GYBE4Y:3IUZPWIU1PF1OQGV70FATKLNOUDKW8",1474640345640,21,1408,0,354,"Hardly Any","right","English","no",8,5,360447
"622","A3F6SDO4GYBE4Y:3IUZPWIU1PF1OQGV70FATKLNOUDKW8",1474640346888,22,1247,0,412,"Hardly Any","right","English","no",8,5,360447
"623","A3F6SDO4GYBE4Y:3IUZPWIU1PF1OQGV70FATKLNOUDKW8",1474640348840,23,1952,0,8,"Hardly Any","left","English","no",8,5,360447
"624","A3F6SDO4GYBE4Y:3IUZPWIU1PF1OQGV70FATKLNOUDKW8",1474640350352,24,1512,0,8,"Hardly Any","left","English","no",8,5,360447
"625","A3F6SDO4GYBE4Y:3IUZPWIU1PF1OQGV70FATKLNOUDKW8",1474640351641,25,1289,0,418,"Hardly Any","left","English","no",8,5,360447
"626","A3F6SDO4GYBE4Y:3IUZPWIU1PF1OQGV70FATKLNOUDKW8",1474640352791,26,1150,0,427,"Hardly Any","left","English","no",8,5,360447
"627","A3F6SDO4GYBE4Y:3IUZPWIU1PF1OQGV70FATKLNOUDKW8",1474640354392,27,1600,0,424,"Hardly Any","left","English","no",8,5,360447
"628","A3F6SDO4GYBE4Y:3IUZPWIU1PF1OQGV70FATKLNOUDKW8",1474640357072,28,2679,0,291,"Hardly Any","left","English","no",8,5,360447
"629","A3F6SDO4GYBE4Y:3IUZPWIU1PF1OQGV70FATKLNOUDKW8",1474640358672,29,1599,0,161,"Hardly Any","left","English","no",8,5,360447
"630","A3F6SDO4GYBE4Y:3IUZPWIU1PF1OQGV70FATKLNOUDKW8",1474640360511,30,1839,0,422,"Hardly Any","left","English","no",8,5,360447
"631","A3F6SDO4GYBE4Y:3IUZPWIU1PF1OQGV70FATKLNOUDKW8",1474640361848,31,1336,0,414,"Hardly Any","left","English","no",8,5,360447
"632","A3F6SDO4GYBE4Y:3IUZPWIU1PF1OQGV70FATKLNOUDKW8",1474640363224,32,1374,0,101,"Hardly Any","left","English","no",8,5,360447
"633","A3F6SDO4GYBE4Y:3IUZPWIU1PF1OQGV70FATKLNOUDKW8",1474640364495,33,1270,0,415,"Hardly Any","left","English","no",8,5,360447
"634","A3F6SDO4GYBE4Y:3IUZPWIU1PF1OQGV70FATKLNOUDKW8",1474640365936,34,1440,0,372,"Hardly Any","right","English","no",8,5,360447
"635","A3F6SDO4GYBE4Y:3IUZPWIU1PF1OQGV70FATKLNOUDKW8",1474640367064,35,1127,0,346,"Hardly Any","right","English","no",8,5,360447
"636","A3F6SDO4GYBE4Y:3IUZPWIU1PF1OQGV70FATKLNOUDKW8",1474640368783,36,1719,0,115,"Hardly Any","right","English","no",8,5,360447
"637","A3F6SDO4GYBE4Y:3IUZPWIU1PF1OQGV70FATKLNOUDKW8",1474640370815,37,2031,0,20,"Hardly Any","left","English","no",8,5,360447
"638","A3F6SDO4GYBE4Y:3IUZPWIU1PF1OQGV70FATKLNOUDKW8",1474640372072,38,1256,0,419,"Hardly Any","left","English","no",8,5,360447
"639","A3F6SDO4GYBE4Y:3IUZPWIU1PF1OQGV70FATKLNOUDKW8",1474640373376,39,1304,0,118,"Hardly Any","left","English","no",8,5,360447
"640","A3F6SDO4GYBE4Y:3IUZPWIU1PF1OQGV70FATKLNOUDKW8",1474640374592,40,1216,0,5,"Hardly Any","left","English","no",8,5,360447
"641","A3F6SDO4GYBE4Y:3IUZPWIU1PF1OQGV70FATKLNOUDKW8",1474640376328,41,1735,0,428,"Hardly Any","left","English","no",8,5,360447
"642","A3F6SDO4GYBE4Y:3IUZPWIU1PF1OQGV70FATKLNOUDKW8",1474640377448,42,1120,0,430,"Hardly Any","left","English","no",8,5,360447
"643","A3F6SDO4GYBE4Y:3IUZPWIU1PF1OQGV70FATKLNOUDKW8",1474640378568,43,1120,0,413,"Hardly Any","left","English","no",8,5,360447
"644","A3F6SDO4GYBE4Y:3IUZPWIU1PF1OQGV70FATKLNOUDKW8",1474640380936,44,2368,0,8,"Hardly Any","right","English","no",8,5,360447
"645","A3F6SDO4GYBE4Y:3IUZPWIU1PF1OQGV70FATKLNOUDKW8",1474640382216,45,1279,0,270,"Hardly Any","right","English","no",8,5,360447
"646","A3F6SDO4GYBE4Y:3IUZPWIU1PF1OQGV70FATKLNOUDKW8",1474640383591,46,1374,0,382,"Hardly Any","left","English","no",8,5,360447
"647","A3F6SDO4GYBE4Y:3IUZPWIU1PF1OQGV70FATKLNOUDKW8",1474640385168,47,1576,0,94,"Hardly Any","left","English","no",8,5,360447
"648","A3F6SDO4GYBE4Y:3IUZPWIU1PF1OQGV70FATKLNOUDKW8",1474640388088,48,2919,0,417,"Hardly Any","right","English","no",8,5,360447
"649","A3F6SDO4GYBE4Y:3IUZPWIU1PF1OQGV70FATKLNOUDKW8",1474640390752,49,2664,0,428,"Hardly Any","left","English","no",8,5,360447
"650","A3F6SDO4GYBE4Y:3IUZPWIU1PF1OQGV70FATKLNOUDKW8",1474640391992,50,1239,0,431,"Hardly Any","right","English","no",8,5,360447
"651","A3F6SDO4GYBE4Y:3IUZPWIU1PF1OQGV70FATKLNOUDKW8",1474640398007,1,2814,320,359,"Half","left","English","no",8,5,360447
"652","A3F6SDO4GYBE4Y:3IUZPWIU1PF1OQGV70FATKLNOUDKW8",1474640399712,2,1704,320,240,"Half","right","English","no",8,5,360447
"653","A3F6SDO4GYBE4Y:3IUZPWIU1PF1OQGV70FATKLNOUDKW8",1474640402120,3,2408,302,320,"Half","left","English","no",8,5,360447
"654","A3F6SDO4GYBE4Y:3IUZPWIU1PF1OQGV70FATKLNOUDKW8",1474640404392,4,2272,302,420,"Half","left","English","no",8,5,360447
"655","A3F6SDO4GYBE4Y:3IUZPWIU1PF1OQGV70FATKLNOUDKW8",1474640406039,5,1646,302,308,"Half","left","English","no",8,5,360447
"656","A3F6SDO4GYBE4Y:3IUZPWIU1PF1OQGV70FATKLNOUDKW8",1474640409287,6,3247,302,357,"Half","left","English","no",8,5,360447
"657","A3F6SDO4GYBE4Y:3IUZPWIU1PF1OQGV70FATKLNOUDKW8",1474640413007,7,3719,304,302,"Half","right","English","no",8,5,360447
"658","A3F6SDO4GYBE4Y:3IUZPWIU1PF1OQGV70FATKLNOUDKW8",1474640414544,8,1536,289,304,"Half","right","English","no",8,5,360447
"659","A3F6SDO4GYBE4Y:3IUZPWIU1PF1OQGV70FATKLNOUDKW8",1474640416519,9,1975,289,285,"Half","left","English","no",8,5,360447
"660","A3F6SDO4GYBE4Y:3IUZPWIU1PF1OQGV70FATKLNOUDKW8",1474640417696,10,1176,287,289,"Half","left","English","no",8,5,360447
"661","A3F6SDO4GYBE4Y:3IUZPWIU1PF1OQGV70FATKLNOUDKW8",1474640419119,11,1422,189,287,"Half","right","English","no",8,5,360447
"662","A3F6SDO4GYBE4Y:3IUZPWIU1PF1OQGV70FATKLNOUDKW8",1474640420736,12,1616,311,189,"Half","left","English","no",8,5,360447
"663","A3F6SDO4GYBE4Y:3IUZPWIU1PF1OQGV70FATKLNOUDKW8",1474640422175,13,1438,311,113,"Half","right","English","no",8,5,360447
"664","A3F6SDO4GYBE4Y:3IUZPWIU1PF1OQGV70FATKLNOUDKW8",1474640424480,14,2304,301,311,"Half","left","English","no",8,5,360447
"665","A3F6SDO4GYBE4Y:3IUZPWIU1PF1OQGV70FATKLNOUDKW8",1474640425832,15,1352,285,301,"Half","left","English","no",8,5,360447
"666","A3F6SDO4GYBE4Y:3IUZPWIU1PF1OQGV70FATKLNOUDKW8",1474640427352,16,1518,285,374,"Half","right","English","no",8,5,360447
"667","A3F6SDO4GYBE4Y:3IUZPWIU1PF1OQGV70FATKLNOUDKW8",1474640428975,17,1623,285,278,"Half","right","English","no",8,5,360447
"668","A3F6SDO4GYBE4Y:3IUZPWIU1PF1OQGV70FATKLNOUDKW8",1474640430640,18,1664,285,148,"Half","right","English","no",8,5,360447
"669","A3F6SDO4GYBE4Y:3IUZPWIU1PF1OQGV70FATKLNOUDKW8",1474640432944,19,2304,285,278,"Half","left","English","no",8,5,360447
"670","A3F6SDO4GYBE4Y:3IUZPWIU1PF1OQGV70FATKLNOUDKW8",1474640434599,20,1655,293,285,"Half","right","English","no",8,5,360447
"671","A3F6SDO4GYBE4Y:3IUZPWIU1PF1OQGV70FATKLNOUDKW8",1474640435944,21,1344,293,303,"Half","right","English","no",8,5,360447
"672","A3F6SDO4GYBE4Y:3IUZPWIU1PF1OQGV70FATKLNOUDKW8",1474640437776,22,1831,293,300,"Half","right","English","no",8,5,360447
"673","A3F6SDO4GYBE4Y:3IUZPWIU1PF1OQGV70FATKLNOUDKW8",1474640440216,23,2440,293,307,"Half","right","English","no",8,5,360447
"674","A3F6SDO4GYBE4Y:3IUZPWIU1PF1OQGV70FATKLNOUDKW8",1474640441831,24,1615,293,343,"Half","left","English","no",8,5,360447
"675","A3F6SDO4GYBE4Y:3IUZPWIU1PF1OQGV70FATKLNOUDKW8",1474640443744,25,1912,293,326,"Half","right","English","no",8,5,360447
"676","A3F6SDO4GYBE4Y:3IUZPWIU1PF1OQGV70FATKLNOUDKW8",1474640445087,26,1343,293,305,"Half","right","English","no",8,5,360447
"677","A3F6SDO4GYBE4Y:3IUZPWIU1PF1OQGV70FATKLNOUDKW8",1474640446983,27,1895,293,120,"Half","right","English","no",8,5,360447
"678","A3F6SDO4GYBE4Y:3IUZPWIU1PF1OQGV70FATKLNOUDKW8",1474640448647,28,1663,300,293,"Half","left","English","no",8,5,360447
"679","A3F6SDO4GYBE4Y:3IUZPWIU1PF1OQGV70FATKLNOUDKW8",1474640450655,29,2007,293,300,"Half","left","English","no",8,5,360447
"680","A3F6SDO4GYBE4Y:3IUZPWIU1PF1OQGV70FATKLNOUDKW8",1474640452664,30,2008,293,296,"Half","left","English","no",8,5,360447
"681","A3F6SDO4GYBE4Y:3IUZPWIU1PF1OQGV70FATKLNOUDKW8",1474640454175,31,1511,281,293,"Half","left","English","no",8,5,360447
"682","A3F6SDO4GYBE4Y:3IUZPWIU1PF1OQGV70FATKLNOUDKW8",1474640455695,32,1519,296,281,"Half","right","English","no",8,5,360447
"683","A3F6SDO4GYBE4Y:3IUZPWIU1PF1OQGV70FATKLNOUDKW8",1474640456752,33,1056,296,280,"Half","right","English","no",8,5,360447
"684","A3F6SDO4GYBE4Y:3IUZPWIU1PF1OQGV70FATKLNOUDKW8",1474640457792,34,1040,296,122,"Half","left","English","no",8,5,360447
"685","A3F6SDO4GYBE4Y:3IUZPWIU1PF1OQGV70FATKLNOUDKW8",1474640458985,35,1193,296,296,"Half","left","English","no",8,5,360447
"686","A3F6SDO4GYBE4Y:3IUZPWIU1PF1OQGV70FATKLNOUDKW8",1474640460448,36,1462,214,296,"Half","right","English","no",8,5,360447
"687","A3F6SDO4GYBE4Y:3IUZPWIU1PF1OQGV70FATKLNOUDKW8",1474640461999,37,1551,223,214,"Half","right","English","no",8,5,360447
"688","A3F6SDO4GYBE4Y:3IUZPWIU1PF1OQGV70FATKLNOUDKW8",1474640463896,38,1896,223,378,"Half","right","English","no",8,5,360447
"689","A3F6SDO4GYBE4Y:3IUZPWIU1PF1OQGV70FATKLNOUDKW8",1474640465576,39,1680,223,234,"Half","right","English","no",8,5,360447
"690","A3F6SDO4GYBE4Y:3IUZPWIU1PF1OQGV70FATKLNOUDKW8",1474640467360,40,1783,234,223,"Half","left","English","no",8,5,360447
"691","A3F6SDO4GYBE4Y:3IUZPWIU1PF1OQGV70FATKLNOUDKW8",1474640468680,41,1320,217,234,"Half","left","English","no",8,5,360447
"692","A3F6SDO4GYBE4Y:3IUZPWIU1PF1OQGV70FATKLNOUDKW8",1474640470207,42,1527,233,217,"Half","right","English","no",8,5,360447
"693","A3F6SDO4GYBE4Y:3IUZPWIU1PF1OQGV70FATKLNOUDKW8",1474640471567,43,1359,233,103,"Half","right","English","no",8,5,360447
"694","A3F6SDO4GYBE4Y:3IUZPWIU1PF1OQGV70FATKLNOUDKW8",1474640473192,44,1624,233,244,"Half","left","English","no",8,5,360447
"695","A3F6SDO4GYBE4Y:3IUZPWIU1PF1OQGV70FATKLNOUDKW8",1474640474559,45,1367,233,233,"Half","right","English","no",8,5,360447
"696","A3F6SDO4GYBE4Y:3IUZPWIU1PF1OQGV70FATKLNOUDKW8",1474640475888,46,1328,233,248,"Half","right","English","no",8,5,360447
"697","A3F6SDO4GYBE4Y:3IUZPWIU1PF1OQGV70FATKLNOUDKW8",1474640477343,47,1455,237,233,"Half","right","English","no",8,5,360447
"698","A3F6SDO4GYBE4Y:3IUZPWIU1PF1OQGV70FATKLNOUDKW8",1474640479816,48,2472,227,237,"Half","left","English","no",8,5,360447
"699","A3F6SDO4GYBE4Y:3IUZPWIU1PF1OQGV70FATKLNOUDKW8",1474640483111,49,3295,227,212,"Half","left","English","no",8,5,360447
"700","A3F6SDO4GYBE4Y:3IUZPWIU1PF1OQGV70FATKLNOUDKW8",1474640484559,50,1448,227,216,"Half","right","English","no",8,5,360447
"701","A3F6SDO4GYBE4Y:3IUZPWIU1PF1OQGV70FATKLNOUDKW8",1474640490232,1,3655,348,147,"All","left","English","no",8,5,360447
"702","A3F6SDO4GYBE4Y:3IUZPWIU1PF1OQGV70FATKLNOUDKW8",1474640491632,2,1400,348,170,"All","left","English","no",8,5,360447
"703","A3F6SDO4GYBE4Y:3IUZPWIU1PF1OQGV70FATKLNOUDKW8",1474640493352,3,1720,344,348,"All","right","English","no",8,5,360447
"704","A3F6SDO4GYBE4Y:3IUZPWIU1PF1OQGV70FATKLNOUDKW8",1474640494599,4,1247,344,208,"All","right","English","no",8,5,360447
"705","A3F6SDO4GYBE4Y:3IUZPWIU1PF1OQGV70FATKLNOUDKW8",1474640497625,5,3025,351,344,"All","left","English","no",8,5,360447
"706","A3F6SDO4GYBE4Y:3IUZPWIU1PF1OQGV70FATKLNOUDKW8",1474640498936,6,1310,351,205,"All","right","English","no",8,5,360447
"707","A3F6SDO4GYBE4Y:3IUZPWIU1PF1OQGV70FATKLNOUDKW8",1474640500824,7,1888,351,351,"All","left","English","no",8,5,360447
"708","A3F6SDO4GYBE4Y:3IUZPWIU1PF1OQGV70FATKLNOUDKW8",1474640502207,8,1383,351,214,"All","right","English","no",8,5,360447
"709","A3F6SDO4GYBE4Y:3IUZPWIU1PF1OQGV70FATKLNOUDKW8",1474640503440,9,1232,351,96,"All","right","English","no",8,5,360447
"710","A3F6SDO4GYBE4Y:3IUZPWIU1PF1OQGV70FATKLNOUDKW8",1474640505039,10,1599,351,331,"All","left","English","no",8,5,360447
"711","A3F6SDO4GYBE4Y:3IUZPWIU1PF1OQGV70FATKLNOUDKW8",1474640506176,11,1136,351,367,"All","left","English","no",8,5,360447
"712","A3F6SDO4GYBE4Y:3IUZPWIU1PF1OQGV70FATKLNOUDKW8",1474640507808,12,1632,351,341,"All","right","English","no",8,5,360447
"713","A3F6SDO4GYBE4Y:3IUZPWIU1PF1OQGV70FATKLNOUDKW8",1474640509679,13,1871,351,200,"All","left","English","no",8,5,360447
"714","A3F6SDO4GYBE4Y:3IUZPWIU1PF1OQGV70FATKLNOUDKW8",1474640511479,14,1799,348,351,"All","left","English","no",8,5,360447
"715","A3F6SDO4GYBE4Y:3IUZPWIU1PF1OQGV70FATKLNOUDKW8",1474640512832,15,1352,348,78,"All","right","English","no",8,5,360447
"716","A3F6SDO4GYBE4Y:3IUZPWIU1PF1OQGV70FATKLNOUDKW8",1474640514687,16,1855,348,356,"All","left","English","no",8,5,360447
"717","A3F6SDO4GYBE4Y:3IUZPWIU1PF1OQGV70FATKLNOUDKW8",1474640516247,17,1559,348,50,"All","right","English","no",8,5,360447
"718","A3F6SDO4GYBE4Y:3IUZPWIU1PF1OQGV70FATKLNOUDKW8",1474640517647,18,1399,342,348,"All","left","English","no",8,5,360447
"719","A3F6SDO4GYBE4Y:3IUZPWIU1PF1OQGV70FATKLNOUDKW8",1474640518872,19,1224,342,34,"All","right","English","no",8,5,360447
"720","A3F6SDO4GYBE4Y:3IUZPWIU1PF1OQGV70FATKLNOUDKW8",1474640520216,20,1343,335,342,"All","left","English","no",8,5,360447
"721","A3F6SDO4GYBE4Y:3IUZPWIU1PF1OQGV70FATKLNOUDKW8",1474640522191,21,1975,335,316,"All","left","English","no",8,5,360447
"722","A3F6SDO4GYBE4Y:3IUZPWIU1PF1OQGV70FATKLNOUDKW8",1474640524031,22,1839,335,321,"All","right","English","no",8,5,360447
"723","A3F6SDO4GYBE4Y:3IUZPWIU1PF1OQGV70FATKLNOUDKW8",1474640526440,23,2408,342,335,"All","left","English","no",8,5,360447
"724","A3F6SDO4GYBE4Y:3IUZPWIU1PF1OQGV70FATKLNOUDKW8",1474640527951,24,1509,330,342,"All","left","English","no",8,5,360447
"725","A3F6SDO4GYBE4Y:3IUZPWIU1PF1OQGV70FATKLNOUDKW8",1474640529087,25,1135,330,213,"All","left","English","no",8,5,360447
"726","A3F6SDO4GYBE4Y:3IUZPWIU1PF1OQGV70FATKLNOUDKW8",1474640530048,26,960,214,330,"All","left","English","no",8,5,360447
"727","A3F6SDO4GYBE4Y:3IUZPWIU1PF1OQGV70FATKLNOUDKW8",1474640531840,27,1792,234,214,"All","right","English","no",8,5,360447
"728","A3F6SDO4GYBE4Y:3IUZPWIU1PF1OQGV70FATKLNOUDKW8",1474640534512,28,2672,218,234,"All","left","English","no",8,5,360447
"729","A3F6SDO4GYBE4Y:3IUZPWIU1PF1OQGV70FATKLNOUDKW8",1474640536464,29,1952,218,209,"All","right","English","no",8,5,360447
"730","A3F6SDO4GYBE4Y:3IUZPWIU1PF1OQGV70FATKLNOUDKW8",1474640538016,30,1552,295,218,"All","left","English","no",8,5,360447
"731","A3F6SDO4GYBE4Y:3IUZPWIU1PF1OQGV70FATKLNOUDKW8",1474640539791,31,1774,308,295,"All","right","English","no",8,5,360447
"732","A3F6SDO4GYBE4Y:3IUZPWIU1PF1OQGV70FATKLNOUDKW8",1474640541608,32,1815,367,308,"All","right","English","no",8,5,360447
"733","A3F6SDO4GYBE4Y:3IUZPWIU1PF1OQGV70FATKLNOUDKW8",1474640543392,33,1784,367,347,"All","left","English","no",8,5,360447
"734","A3F6SDO4GYBE4Y:3IUZPWIU1PF1OQGV70FATKLNOUDKW8",1474640544967,34,1575,367,209,"All","right","English","no",8,5,360447
"735","A3F6SDO4GYBE4Y:3IUZPWIU1PF1OQGV70FATKLNOUDKW8",1474640546335,35,1367,367,190,"All","left","English","no",8,5,360447
"736","A3F6SDO4GYBE4Y:3IUZPWIU1PF1OQGV70FATKLNOUDKW8",1474640547943,36,1607,367,92,"All","right","English","no",8,5,360447
"737","A3F6SDO4GYBE4Y:3IUZPWIU1PF1OQGV70FATKLNOUDKW8",1474640549271,37,1327,367,353,"All","left","English","no",8,5,360447
"738","A3F6SDO4GYBE4Y:3IUZPWIU1PF1OQGV70FATKLNOUDKW8",1474640550895,38,1623,367,174,"All","right","English","no",8,5,360447
"739","A3F6SDO4GYBE4Y:3IUZPWIU1PF1OQGV70FATKLNOUDKW8",1474640552359,39,1463,395,367,"All","left","English","no",8,5,360447
"740","A3F6SDO4GYBE4Y:3IUZPWIU1PF1OQGV70FATKLNOUDKW8",1474640555104,40,2744,413,395,"All","right","English","no",8,5,360447
"741","A3F6SDO4GYBE4Y:3IUZPWIU1PF1OQGV70FATKLNOUDKW8",1474640556535,41,1430,413,294,"All","left","English","no",8,5,360447
"742","A3F6SDO4GYBE4Y:3IUZPWIU1PF1OQGV70FATKLNOUDKW8",1474640557728,42,1192,413,167,"All","left","English","no",8,5,360447
"743","A3F6SDO4GYBE4Y:3IUZPWIU1PF1OQGV70FATKLNOUDKW8",1474640559504,43,1775,413,395,"All","left","English","no",8,5,360447
"744","A3F6SDO4GYBE4Y:3IUZPWIU1PF1OQGV70FATKLNOUDKW8",1474640561327,44,1823,424,413,"All","right","English","no",8,5,360447
"745","A3F6SDO4GYBE4Y:3IUZPWIU1PF1OQGV70FATKLNOUDKW8",1474640562456,45,1128,424,29,"All","right","English","no",8,5,360447
"746","A3F6SDO4GYBE4Y:3IUZPWIU1PF1OQGV70FATKLNOUDKW8",1474640564552,46,2096,424,420,"All","left","English","no",8,5,360447
"747","A3F6SDO4GYBE4Y:3IUZPWIU1PF1OQGV70FATKLNOUDKW8",1474640564575,47,23,424,424,"All","left","English","no",8,5,360447
"748","A3F6SDO4GYBE4Y:3IUZPWIU1PF1OQGV70FATKLNOUDKW8",1474640565792,48,1217,424,6,"All","right","English","no",8,5,360447
"749","A3F6SDO4GYBE4Y:3IUZPWIU1PF1OQGV70FATKLNOUDKW8",1474640567583,49,1791,432,424,"All","left","English","no",8,5,360447
"750","A3F6SDO4GYBE4Y:3IUZPWIU1PF1OQGV70FATKLNOUDKW8",1474640569967,50,2384,432,419,"All","left","English","no",8,5,360447
"751","A3F6SDO4GYBE4Y:3IUZPWIU1PF1OQGV70FATKLNOUDKW8",1474640574039,1,2774,124,50,"Most","left","English","no",8,5,360447
"752","A3F6SDO4GYBE4Y:3IUZPWIU1PF1OQGV70FATKLNOUDKW8",1474640577320,2,3280,124,118,"Most","left","English","no",8,5,360447
"753","A3F6SDO4GYBE4Y:3IUZPWIU1PF1OQGV70FATKLNOUDKW8",1474640578703,3,1383,124,111,"Most","left","English","no",8,5,360447
"754","A3F6SDO4GYBE4Y:3IUZPWIU1PF1OQGV70FATKLNOUDKW8",1474640580447,4,1743,124,111,"Most","right","English","no",8,5,360447
"755","A3F6SDO4GYBE4Y:3IUZPWIU1PF1OQGV70FATKLNOUDKW8",1474640581856,5,1407,123,124,"Most","right","English","no",8,5,360447
"756","A3F6SDO4GYBE4Y:3IUZPWIU1PF1OQGV70FATKLNOUDKW8",1474640583240,6,1384,293,123,"Most","right","English","no",8,5,360447
"757","A3F6SDO4GYBE4Y:3IUZPWIU1PF1OQGV70FATKLNOUDKW8",1474640584791,7,1551,293,276,"Most","left","English","no",8,5,360447
"758","A3F6SDO4GYBE4Y:3IUZPWIU1PF1OQGV70FATKLNOUDKW8",1474640586079,8,1287,293,288,"Most","right","English","no",8,5,360447
"759","A3F6SDO4GYBE4Y:3IUZPWIU1PF1OQGV70FATKLNOUDKW8",1474640587095,9,1015,293,310,"Most","right","English","no",8,5,360447
"760","A3F6SDO4GYBE4Y:3IUZPWIU1PF1OQGV70FATKLNOUDKW8",1474640588591,10,1495,293,310,"Most","right","English","no",8,5,360447
"761","A3F6SDO4GYBE4Y:3IUZPWIU1PF1OQGV70FATKLNOUDKW8",1474640589800,11,1208,293,59,"Most","right","English","no",8,5,360447
"762","A3F6SDO4GYBE4Y:3IUZPWIU1PF1OQGV70FATKLNOUDKW8",1474640591575,12,1775,293,300,"Most","right","English","no",8,5,360447
"763","A3F6SDO4GYBE4Y:3IUZPWIU1PF1OQGV70FATKLNOUDKW8",1474640593007,13,1431,301,293,"Most","right","English","no",8,5,360447
"764","A3F6SDO4GYBE4Y:3IUZPWIU1PF1OQGV70FATKLNOUDKW8",1474640594248,14,1241,301,45,"Most","right","English","no",8,5,360447
"765","A3F6SDO4GYBE4Y:3IUZPWIU1PF1OQGV70FATKLNOUDKW8",1474640595703,15,1455,369,301,"Most","right","English","no",8,5,360447
"766","A3F6SDO4GYBE4Y:3IUZPWIU1PF1OQGV70FATKLNOUDKW8",1474640597192,16,1488,369,259,"Most","left","English","no",8,5,360447
"767","A3F6SDO4GYBE4Y:3IUZPWIU1PF1OQGV70FATKLNOUDKW8",1474640598912,17,1720,369,353,"Most","left","English","no",8,5,360447
"768","A3F6SDO4GYBE4Y:3IUZPWIU1PF1OQGV70FATKLNOUDKW8",1474640600327,18,1415,369,302,"Most","right","English","no",8,5,360447
"769","A3F6SDO4GYBE4Y:3IUZPWIU1PF1OQGV70FATKLNOUDKW8",1474640601823,19,1495,369,362,"Most","right","English","no",8,5,360447
"770","A3F6SDO4GYBE4Y:3IUZPWIU1PF1OQGV70FATKLNOUDKW8",1474640603439,20,1615,381,369,"Most","right","English","no",8,5,360447
"771","A3F6SDO4GYBE4Y:3IUZPWIU1PF1OQGV70FATKLNOUDKW8",1474640605391,21,1951,371,381,"Most","left","English","no",8,5,360447
"772","A3F6SDO4GYBE4Y:3IUZPWIU1PF1OQGV70FATKLNOUDKW8",1474640606840,22,1449,362,371,"Most","left","English","no",8,5,360447
"773","A3F6SDO4GYBE4Y:3IUZPWIU1PF1OQGV70FATKLNOUDKW8",1474640608223,23,1383,362,361,"Most","right","English","no",8,5,360447
"774","A3F6SDO4GYBE4Y:3IUZPWIU1PF1OQGV70FATKLNOUDKW8",1474640609528,24,1304,362,348,"Most","right","English","no",8,5,360447
"775","A3F6SDO4GYBE4Y:3IUZPWIU1PF1OQGV70FATKLNOUDKW8",1474640611248,25,1720,424,362,"Most","left","English","no",8,5,360447
"776","A3F6SDO4GYBE4Y:3IUZPWIU1PF1OQGV70FATKLNOUDKW8",1474640612479,26,1231,424,414,"Most","left","English","no",8,5,360447
"777","A3F6SDO4GYBE4Y:3IUZPWIU1PF1OQGV70FATKLNOUDKW8",1474640613903,27,1423,424,0,"Most","left","English","no",8,5,360447
"778","A3F6SDO4GYBE4Y:3IUZPWIU1PF1OQGV70FATKLNOUDKW8",1474640616400,28,2496,424,427,"Most","left","English","no",8,5,360447
"779","A3F6SDO4GYBE4Y:3IUZPWIU1PF1OQGV70FATKLNOUDKW8",1474640617848,29,1448,424,345,"Most","left","English","no",8,5,360447
"780","A3F6SDO4GYBE4Y:3IUZPWIU1PF1OQGV70FATKLNOUDKW8",1474640620215,30,2367,427,424,"Most","left","English","no",8,5,360447
"781","A3F6SDO4GYBE4Y:3IUZPWIU1PF1OQGV70FATKLNOUDKW8",1474640622727,31,2512,426,427,"Most","right","English","no",8,5,360447
"782","A3F6SDO4GYBE4Y:3IUZPWIU1PF1OQGV70FATKLNOUDKW8",1474640623952,32,1225,426,13,"Most","left","English","no",8,5,360447
"783","A3F6SDO4GYBE4Y:3IUZPWIU1PF1OQGV70FATKLNOUDKW8",1474640625472,33,1518,426,1,"Most","right","English","no",8,5,360447
"784","A3F6SDO4GYBE4Y:3IUZPWIU1PF1OQGV70FATKLNOUDKW8",1474640627175,34,1703,430,426,"Most","right","English","no",8,5,360447
"785","A3F6SDO4GYBE4Y:3IUZPWIU1PF1OQGV70FATKLNOUDKW8",1474640629448,35,2272,430,285,"Most","right","English","no",8,5,360447
"786","A3F6SDO4GYBE4Y:3IUZPWIU1PF1OQGV70FATKLNOUDKW8",1474640630839,36,1390,430,241,"Most","right","English","no",8,5,360447
"787","A3F6SDO4GYBE4Y:3IUZPWIU1PF1OQGV70FATKLNOUDKW8",1474640632367,37,1528,430,2,"Most","right","English","no",8,5,360447
"788","A3F6SDO4GYBE4Y:3IUZPWIU1PF1OQGV70FATKLNOUDKW8",1474640635320,38,2953,431,430,"Most","right","English","no",8,5,360447
"789","A3F6SDO4GYBE4Y:3IUZPWIU1PF1OQGV70FATKLNOUDKW8",1474640636984,39,1664,431,297,"Most","right","English","no",8,5,360447
"790","A3F6SDO4GYBE4Y:3IUZPWIU1PF1OQGV70FATKLNOUDKW8",1474640638591,40,1607,431,38,"Most","left","English","no",8,5,360447
"791","A3F6SDO4GYBE4Y:3IUZPWIU1PF1OQGV70FATKLNOUDKW8",1474640639895,41,1303,431,128,"Most","left","English","no",8,5,360447
"792","A3F6SDO4GYBE4Y:3IUZPWIU1PF1OQGV70FATKLNOUDKW8",1474640641327,42,1432,431,183,"Most","right","English","no",8,5,360447
"793","A3F6SDO4GYBE4Y:3IUZPWIU1PF1OQGV70FATKLNOUDKW8",1474640642831,43,1503,431,168,"Most","left","English","no",8,5,360447
"794","A3F6SDO4GYBE4Y:3IUZPWIU1PF1OQGV70FATKLNOUDKW8",1474640644423,44,1591,431,3,"Most","right","English","no",8,5,360447
"795","A3F6SDO4GYBE4Y:3IUZPWIU1PF1OQGV70FATKLNOUDKW8",1474640646239,45,1815,431,414,"Most","left","English","no",8,5,360447
"796","A3F6SDO4GYBE4Y:3IUZPWIU1PF1OQGV70FATKLNOUDKW8",1474640647615,46,1375,431,7,"Most","left","English","no",8,5,360447
"797","A3F6SDO4GYBE4Y:3IUZPWIU1PF1OQGV70FATKLNOUDKW8",1474640649128,47,1512,431,412,"Most","left","English","no",8,5,360447
"798","A3F6SDO4GYBE4Y:3IUZPWIU1PF1OQGV70FATKLNOUDKW8",1474640652352,48,3224,431,430,"Most","left","English","no",8,5,360447
